workerid,proliferate.condition,adj,adj_tr,label,object,response,rt,slide_number_in_experiment,trial_type,catch_trials,subject_information.age,subject_information.asses,subject_information.comments,subject_information.education,subject_information.enjoyment,subject_information.gender,subject_information.language,system.Browser,system.OS,system.screenH,system.screenW,time_in_minutes,error
903,condition1,,,,beyaz,Beyaz,0,1,bot_check,[],24,Yes,,4,1,Female,Türkçe,Chrome,Mac,800,1280,3.5894,
903,condition1,black and white,siyah beyaz,picture_bw_rectangular,picture,[0],18214,3,,[],24,Yes,,4,1,Female,Türkçe,Chrome,Mac,800,1280,3.5894,
903,condition1,plastic,plastik,bottle_plastic_big,bottle,[0.78],10927,4,,[],24,Yes,,4,1,Female,Türkçe,Chrome,Mac,800,1280,3.5894,
903,condition1,green,yeşil,frog_spotted_green,frog,[0.66],3901,5,,[],24,Yes,,4,1,Female,Türkçe,Chrome,Mac,800,1280,3.5894,
903,condition1,dry,kuru,shorts_dry_green,shorts,[0.8],5144,6,,[],24,Yes,,4,1,Female,Türkçe,Chrome,Mac,800,1280,3.5894,
903,condition1,short,kısa,pencil_short_black,pencil,[1],3418,7,,[],24,Yes,,4,1,Female,Türkçe,Chrome,Mac,800,1280,3.5894,
903,condition1,glasses-wearing,gözlüklü,man2_bearded_glassed,man,[0.02],3304,8,,[],24,Yes,,4,1,Female,Türkçe,Chrome,Mac,800,1280,3.5894,
903,condition1,mustache-touting,bıyıklı,man2_mustached_glassed,man,[0],2816,9,,[],24,Yes,,4,1,Female,Türkçe,Chrome,Mac,800,1280,3.5894,
903,condition1,red,kırmızı,frog_spotted_red,frog,[0.88],4732,10,,[],24,Yes,,4,1,Female,Türkçe,Chrome,Mac,800,1280,3.5894,
903,condition1,blond,sarı,hair_curly_blonde,hair,[0.9],3587,11,,[],24,Yes,,4,1,Female,Türkçe,Chrome,Mac,800,1280,3.5894,
903,condition1,open,açık,box_open_cardboard,box,[0.87],3265,12,,[],24,Yes,,4,1,Female,Türkçe,Chrome,Mac,800,1280,3.5894,
903,condition1,big,büyük,bottle_glass_big,bottle,[0.95],2677,13,,[],24,Yes,,4,1,Female,Türkçe,Chrome,Mac,800,1280,3.5894,
903,condition1,wooden,tahta,spoon_wooden_clean,spoon,[0],2700,14,,[],24,Yes,,4,1,Female,Türkçe,Chrome,Mac,800,1280,3.5894,
903,condition1,glass,cam,bottle_glass_big,bottle,[0.87],3178,15,,[],24,Yes,,4,1,Female,Türkçe,Chrome,Mac,800,1280,3.5894,
903,condition1,small,küçük,bottle_glass_small,bottle,[1],2993,16,,[],24,Yes,,4,1,Female,Türkçe,Chrome,Mac,800,1280,3.5894,
903,condition1,round,yuvarlak,earring_big_round,earring,[0.85],3785,17,,[],24,Yes,,4,1,Female,Türkçe,Chrome,Mac,800,1280,3.5894,
903,condition1,low,alçak,table_metal_low,table,[0.87],2539,18,,[],24,Yes,,4,1,Female,Türkçe,Chrome,Mac,800,1280,3.5894,
903,condition1,bearded,sakallı,man_old_bearded,man,[0.02],3230,19,,[],24,Yes,,4,1,Female,Türkçe,Chrome,Mac,800,1280,3.5894,
903,condition1,blue,mavi,pencil_long_blue,pencil,[0.86],2615,20,,[],24,Yes,,4,1,Female,Türkçe,Chrome,Mac,800,1280,3.5894,
903,condition1,hat-wearing,şapkalı,man2_bearded_hatted,man,[0],2845,21,,[],24,Yes,,4,1,Female,Türkçe,Chrome,Mac,800,1280,3.5894,
903,condition1,metal,metal,spoon_metal_clean,spoon,[0.56],4536,22,,[],24,Yes,,4,1,Female,Türkçe,Chrome,Mac,800,1280,3.5894,
903,condition1,happy,mutlu,woman_old_happy,woman,[0.96],3572,23,,[],24,Yes,,4,1,Female,Türkçe,Chrome,Mac,800,1280,3.5894,
903,condition1,straight,düz,hair_straight_blond,hair,[0.59],2949,24,,[],24,Yes,,4,1,Female,Türkçe,Chrome,Mac,800,1280,3.5894,
903,condition1,colored,renkli,picture_colored_rectangular,picture,[0.61],4102,25,,[],24,Yes,,4,1,Female,Türkçe,Chrome,Mac,800,1280,3.5894,
903,condition1,sad,mutsuz,woman_old_sad,woman,[0.87],2446,26,,[],24,Yes,,4,1,Female,Türkçe,Chrome,Mac,800,1280,3.5894,
903,condition1,fat,şişman,woman2_happy_fat,woman,[0.98],2524,27,,[],24,Yes,,4,1,Female,Türkçe,Chrome,Mac,800,1280,3.5894,
903,condition1,high,yüksek,table_metal_high,table,[0.9],1901,28,,[],24,Yes,,4,1,Female,Türkçe,Chrome,Mac,800,1280,3.5894,
903,condition1,black,siyah,nails_black_glossy,nails,[0.94],2008,29,,[],24,Yes,,4,1,Female,Türkçe,Chrome,Mac,800,1280,3.5894,
903,condition1,old,yaşlı,man_old_bearded,man,[0.92],2749,30,,[],24,Yes,,4,1,Female,Türkçe,Chrome,Mac,800,1280,3.5894,
903,condition1,matte,mat,nails_black_matte,nails,[0.65],2511,31,,[],24,Yes,,4,1,Female,Türkçe,Chrome,Mac,800,1280,3.5894,
903,condition1,clean-shaven,sakalsız,man_old_cleanshaven,man,[0],3037,32,,[],24,Yes,,4,1,Female,Türkçe,Chrome,Mac,800,1280,3.5894,
903,condition1,triangular,üçgen,earring_big_triangular,earring,[0.03],3091,33,,[],24,Yes,,4,1,Female,Türkçe,Chrome,Mac,800,1280,3.5894,
903,condition1,square,kare,picture_bw_square,picture,[0.01],1928,34,,[],24,Yes,,4,1,Female,Türkçe,Chrome,Mac,800,1280,3.5894,
903,condition1,long,uzun,pencil_long_black,pencil,[0.72],2041,35,,[],24,Yes,,4,1,Female,Türkçe,Chrome,Mac,800,1280,3.5894,
903,condition1,spotted,benekli,frog_spotted_green,frog,[0.02],3323,36,,[],24,Yes,,4,1,Female,Türkçe,Chrome,Mac,800,1280,3.5894,
903,condition1,young,genç,man_young_bearded,man,[0.88],2451,37,,[],24,Yes,,4,1,Female,Türkçe,Chrome,Mac,800,1280,3.5894,
903,condition1,striped,çizgili,frog_striped_green,frog,[0],2941,38,,[],24,Yes,,4,1,Female,Türkçe,Chrome,Mac,800,1280,3.5894,
903,condition1,cardboard,karton,box_closed_cardboard,box,[0.02],2181,39,,[],24,Yes,,4,1,Female,Türkçe,Chrome,Mac,800,1280,3.5894,
903,condition1,skinny,zayıf,woman2_happy_skinny,woman,[0.91],2097,40,,[],24,Yes,,4,1,Female,Türkçe,Chrome,Mac,800,1280,3.5894,
903,condition1,glossy,parlak,nails_black_glossy,nails,[0.54],2836,41,,[],24,Yes,,4,1,Female,Türkçe,Chrome,Mac,800,1280,3.5894,
903,condition1,closed,kapalı,box_closed_cardboard,box,[0.62],2339,42,,[],24,Yes,,4,1,Female,Türkçe,Chrome,Mac,800,1280,3.5894,
903,condition1,brown,kahverengi,hair_curly_brown,hair,[0.62],2676,43,,[],24,Yes,,4,1,Female,Türkçe,Chrome,Mac,800,1280,3.5894,
903,condition1,rectangular,dikdörtgen,picture_bw_rectangular,picture,[0.02],3781,44,,[],24,Yes,,4,1,Female,Türkçe,Chrome,Mac,800,1280,3.5894,
903,condition1,clean,temiz,spoon_metal_clean,spoon,[0.64],2438,45,,[],24,Yes,,4,1,Female,Türkçe,Chrome,Mac,800,1280,3.5894,
903,condition1,curly,kıvırcık,hair_curly_blonde,hair,[0.08],3825,46,,[],24,Yes,,4,1,Female,Türkçe,Chrome,Mac,800,1280,3.5894,
903,condition1,dirty,kirli,spoon_metal_dirty,spoon,[0.55],2865,47,,[],24,Yes,,4,1,Female,Türkçe,Chrome,Mac,800,1280,3.5894,
903,condition1,wet,ıslak,shorts_wet_green,shorts,[0.59],1840,48,,[],24,Yes,,4,1,Female,Türkçe,Chrome,Mac,800,1280,3.5894,
943,condition1,,,,beyaz,beyaz,0,1,bot_check,[],30,Yes,,4,1,Male,Turkce,Firefox,Windows,1152,2048,4.233266666666666,
943,condition1,high,yüksek,table_metal_high,table,[0.67],19330,3,,[],30,Yes,,4,1,Male,Turkce,Firefox,Windows,1152,2048,4.233266666666666,
943,condition1,blond,sarı,hair_curly_blonde,hair,[0.15],9824,4,,[],30,Yes,,4,1,Male,Turkce,Firefox,Windows,1152,2048,4.233266666666666,
943,condition1,long,uzun,pencil_long_black,pencil,[0.77],3588,5,,[],30,Yes,,4,1,Male,Turkce,Firefox,Windows,1152,2048,4.233266666666666,
943,condition1,clean-shaven,sakalsız,man_old_cleanshaven,man,[0.25],5568,6,,[],30,Yes,,4,1,Male,Turkce,Firefox,Windows,1152,2048,4.233266666666666,
943,condition1,striped,çizgili,frog_striped_green,frog,[0.37],7592,7,,[],30,Yes,,4,1,Male,Turkce,Firefox,Windows,1152,2048,4.233266666666666,
943,condition1,cardboard,karton,box_closed_cardboard,box,[0.02],6743,8,,[],30,Yes,,4,1,Male,Turkce,Firefox,Windows,1152,2048,4.233266666666666,
943,condition1,red,kırmızı,frog_spotted_red,frog,[0.62],6654,9,,[],30,Yes,,4,1,Male,Turkce,Firefox,Windows,1152,2048,4.233266666666666,
943,condition1,glasses-wearing,gözlüklü,man2_bearded_glassed,man,[0],7257,10,,[],30,Yes,,4,1,Male,Turkce,Firefox,Windows,1152,2048,4.233266666666666,
943,condition1,closed,kapalı,box_closed_cardboard,box,[0.03],4561,11,,[],30,Yes,,4,1,Male,Turkce,Firefox,Windows,1152,2048,4.233266666666666,
943,condition1,colored,renkli,picture_colored_rectangular,picture,[0],5815,12,,[],30,Yes,,4,1,Male,Turkce,Firefox,Windows,1152,2048,4.233266666666666,
943,condition1,glass,cam,bottle_glass_big,bottle,[0],2117,13,,[],30,Yes,,4,1,Male,Turkce,Firefox,Windows,1152,2048,4.233266666666666,
943,condition1,square,kare,picture_bw_square,picture,[0],3783,14,,[],30,Yes,,4,1,Male,Turkce,Firefox,Windows,1152,2048,4.233266666666666,
943,condition1,dry,kuru,shorts_dry_green,shorts,[0.64],6301,15,,[],30,Yes,,4,1,Male,Turkce,Firefox,Windows,1152,2048,4.233266666666666,
943,condition1,hat-wearing,şapkalı,man2_bearded_hatted,man,[0.01],2645,16,,[],30,Yes,,4,1,Male,Turkce,Firefox,Windows,1152,2048,4.233266666666666,
943,condition1,straight,düz,hair_straight_blond,hair,[0.52],3360,17,,[],30,Yes,,4,1,Male,Turkce,Firefox,Windows,1152,2048,4.233266666666666,
943,condition1,triangular,üçgen,earring_big_triangular,earring,[0],3700,18,,[],30,Yes,,4,1,Male,Turkce,Firefox,Windows,1152,2048,4.233266666666666,
943,condition1,small,küçük,bottle_glass_small,bottle,[0.82],19496,19,,[],30,Yes,,4,1,Male,Turkce,Firefox,Windows,1152,2048,4.233266666666666,
943,condition1,mustache-touting,bıyıklı,man2_mustached_glassed,man,[0.03],2460,20,,[],30,Yes,,4,1,Male,Turkce,Firefox,Windows,1152,2048,4.233266666666666,
943,condition1,metal,metal,spoon_metal_clean,spoon,[0.15],2324,21,,[],30,Yes,,4,1,Male,Turkce,Firefox,Windows,1152,2048,4.233266666666666,
943,condition1,sad,mutsuz,woman_old_sad,woman,[0.69],6892,22,,[],30,Yes,,4,1,Male,Turkce,Firefox,Windows,1152,2048,4.233266666666666,
943,condition1,dirty,kirli,spoon_metal_dirty,spoon,[0.53],2429,23,,[],30,Yes,,4,1,Male,Turkce,Firefox,Windows,1152,2048,4.233266666666666,
943,condition1,spotted,benekli,frog_spotted_green,frog,[0.3],2770,24,,[],30,Yes,,4,1,Male,Turkce,Firefox,Windows,1152,2048,4.233266666666666,
943,condition1,open,açık,box_open_cardboard,box,[0.25],2949,25,,[],30,Yes,,4,1,Male,Turkce,Firefox,Windows,1152,2048,4.233266666666666,
943,condition1,rectangular,dikdörtgen,picture_bw_rectangular,picture,[0.08],2439,26,,[],30,Yes,,4,1,Male,Turkce,Firefox,Windows,1152,2048,4.233266666666666,
943,condition1,blue,mavi,pencil_long_blue,pencil,[0.55],3503,27,,[],30,Yes,,4,1,Male,Turkce,Firefox,Windows,1152,2048,4.233266666666666,
943,condition1,brown,kahverengi,hair_curly_brown,hair,[0.51],1842,28,,[],30,Yes,,4,1,Male,Turkce,Firefox,Windows,1152,2048,4.233266666666666,
943,condition1,matte,mat,nails_black_matte,nails,[0.47],4096,29,,[],30,Yes,,4,1,Male,Turkce,Firefox,Windows,1152,2048,4.233266666666666,
943,condition1,short,kısa,pencil_short_black,pencil,[0.77],6000,30,,[],30,Yes,,4,1,Male,Turkce,Firefox,Windows,1152,2048,4.233266666666666,
943,condition1,young,genç,man_young_bearded,man,[0.66],2220,31,,[],30,Yes,,4,1,Male,Turkce,Firefox,Windows,1152,2048,4.233266666666666,
943,condition1,plastic,plastik,bottle_plastic_big,bottle,[0.16],3354,32,,[],30,Yes,,4,1,Male,Turkce,Firefox,Windows,1152,2048,4.233266666666666,
943,condition1,old,yaşlı,man_old_bearded,man,[0.65],2603,33,,[],30,Yes,,4,1,Male,Turkce,Firefox,Windows,1152,2048,4.233266666666666,
943,condition1,glossy,parlak,nails_black_glossy,nails,[0.67],5353,34,,[],30,Yes,,4,1,Male,Turkce,Firefox,Windows,1152,2048,4.233266666666666,
943,condition1,black and white,siyah beyaz,picture_bw_rectangular,picture,[0.51],6582,35,,[],30,Yes,,4,1,Male,Turkce,Firefox,Windows,1152,2048,4.233266666666666,
943,condition1,black,siyah,nails_black_glossy,nails,[0.5],2874,36,,[],30,Yes,,4,1,Male,Turkce,Firefox,Windows,1152,2048,4.233266666666666,
943,condition1,happy,mutlu,woman_old_happy,woman,[0.77],2950,37,,[],30,Yes,,4,1,Male,Turkce,Firefox,Windows,1152,2048,4.233266666666666,
943,condition1,green,yeşil,frog_spotted_green,frog,[0.53],4980,38,,[],30,Yes,,4,1,Male,Turkce,Firefox,Windows,1152,2048,4.233266666666666,
943,condition1,clean,temiz,spoon_metal_clean,spoon,[0.7],5705,39,,[],30,Yes,,4,1,Male,Turkce,Firefox,Windows,1152,2048,4.233266666666666,
943,condition1,skinny,zayıf,woman2_happy_skinny,woman,[0.82],2282,40,,[],30,Yes,,4,1,Male,Turkce,Firefox,Windows,1152,2048,4.233266666666666,
943,condition1,bearded,sakallı,man_old_bearded,man,[0.08],3642,41,,[],30,Yes,,4,1,Male,Turkce,Firefox,Windows,1152,2048,4.233266666666666,
943,condition1,curly,kıvırcık,hair_curly_blonde,hair,[0.42],2553,42,,[],30,Yes,,4,1,Male,Turkce,Firefox,Windows,1152,2048,4.233266666666666,
943,condition1,wet,ıslak,shorts_wet_green,shorts,[0.74],2420,43,,[],30,Yes,,4,1,Male,Turkce,Firefox,Windows,1152,2048,4.233266666666666,
943,condition1,big,büyük,bottle_glass_big,bottle,[0.72],4035,44,,[],30,Yes,,4,1,Male,Turkce,Firefox,Windows,1152,2048,4.233266666666666,
943,condition1,round,yuvarlak,earring_big_round,earring,[0.14],3889,45,,[],30,Yes,,4,1,Male,Turkce,Firefox,Windows,1152,2048,4.233266666666666,
943,condition1,wooden,tahta,spoon_wooden_clean,spoon,[0.17],4124,46,,[],30,Yes,,4,1,Male,Turkce,Firefox,Windows,1152,2048,4.233266666666666,
943,condition1,low,alçak,table_metal_low,table,[0.89],1901,47,,[],30,Yes,,4,1,Male,Turkce,Firefox,Windows,1152,2048,4.233266666666666,
943,condition1,fat,şişman,woman2_happy_fat,woman,[0.86],1909,48,,[],30,Yes,,4,1,Male,Turkce,Firefox,Windows,1152,2048,4.233266666666666,
888,condition1,,,,beyaz,beyaz,0,1,bot_check,[],33,Confused,,4,0,Female,Turkce,Chrome,Windows,864,1536,7.283566666666666,
888,condition1,round,yuvarlak,earring_big_round,earring,[0.47],12280,3,,[],33,Confused,,4,0,Female,Turkce,Chrome,Windows,864,1536,7.283566666666666,
888,condition1,low,alçak,table_metal_low,table,[0.45],9471,4,,[],33,Confused,,4,0,Female,Turkce,Chrome,Windows,864,1536,7.283566666666666,
888,condition1,sad,mutsuz,woman_old_sad,woman,[0.46],5565,5,,[],33,Confused,,4,0,Female,Turkce,Chrome,Windows,864,1536,7.283566666666666,
888,condition1,long,uzun,pencil_long_black,pencil,[0.31],2918,6,,[],33,Confused,,4,0,Female,Turkce,Chrome,Windows,864,1536,7.283566666666666,
888,condition1,blond,sarı,hair_curly_blonde,hair,[0.51],1721,7,,[],33,Confused,,4,0,Female,Turkce,Chrome,Windows,864,1536,7.283566666666666,
888,condition1,open,açık,box_open_cardboard,box,[0.36],1596,8,,[],33,Confused,,4,0,Female,Turkce,Chrome,Windows,864,1536,7.283566666666666,
888,condition1,dry,kuru,shorts_dry_green,shorts,[0.53],2773,9,,[],33,Confused,,4,0,Female,Turkce,Chrome,Windows,864,1536,7.283566666666666,
888,condition1,wet,ıslak,shorts_wet_green,shorts,[0.51],3317,10,,[],33,Confused,,4,0,Female,Turkce,Chrome,Windows,864,1536,7.283566666666666,
888,condition1,bearded,sakallı,man_old_bearded,man,[0.54],2995,11,,[],33,Confused,,4,0,Female,Turkce,Chrome,Windows,864,1536,7.283566666666666,
888,condition1,big,büyük,bottle_glass_big,bottle,[0.47],8310,12,,[],33,Confused,,4,0,Female,Turkce,Chrome,Windows,864,1536,7.283566666666666,
888,condition1,plastic,plastik,bottle_plastic_big,bottle,[0.47],4516,13,,[],33,Confused,,4,0,Female,Turkce,Chrome,Windows,864,1536,7.283566666666666,
888,condition1,metal,metal,spoon_metal_clean,spoon,[0.49],1672,14,,[],33,Confused,,4,0,Female,Turkce,Chrome,Windows,864,1536,7.283566666666666,
888,condition1,glasses-wearing,gözlüklü,man2_bearded_glassed,man,[0.46],1644,15,,[],33,Confused,,4,0,Female,Turkce,Chrome,Windows,864,1536,7.283566666666666,
888,condition1,glass,cam,bottle_glass_big,bottle,[0.46],6126,16,,[],33,Confused,,4,0,Female,Turkce,Chrome,Windows,864,1536,7.283566666666666,
888,condition1,happy,mutlu,woman_old_happy,woman,[0.37],2526,17,,[],33,Confused,,4,0,Female,Turkce,Chrome,Windows,864,1536,7.283566666666666,
888,condition1,matte,mat,nails_black_matte,nails,[0.03],8191,18,,[],33,Confused,,4,0,Female,Turkce,Chrome,Windows,864,1536,7.283566666666666,
888,condition1,black,siyah,nails_black_glossy,nails,[0.11],3283,19,,[],33,Confused,,4,0,Female,Turkce,Chrome,Windows,864,1536,7.283566666666666,
888,condition1,wooden,tahta,spoon_wooden_clean,spoon,[0.09],2988,20,,[],33,Confused,,4,0,Female,Turkce,Chrome,Windows,864,1536,7.283566666666666,
888,condition1,clean-shaven,sakalsız,man_old_cleanshaven,man,[0.03],30454,21,,[],33,Confused,,4,0,Female,Turkce,Chrome,Windows,864,1536,7.283566666666666,
888,condition1,short,kısa,pencil_short_black,pencil,[0.09],2947,22,,[],33,Confused,,4,0,Female,Turkce,Chrome,Windows,864,1536,7.283566666666666,
888,condition1,clean,temiz,spoon_metal_clean,spoon,[0.19],3983,23,,[],33,Confused,,4,0,Female,Turkce,Chrome,Windows,864,1536,7.283566666666666,
888,condition1,brown,kahverengi,hair_curly_brown,hair,[0.25],3157,24,,[],33,Confused,,4,0,Female,Turkce,Chrome,Windows,864,1536,7.283566666666666,
888,condition1,fat,şişman,woman2_happy_fat,woman,[0.99],6676,25,,[],33,Confused,,4,0,Female,Turkce,Chrome,Windows,864,1536,7.283566666666666,
888,condition1,mustache-touting,bıyıklı,man2_mustached_glassed,man,[0.04],2731,26,,[],33,Confused,,4,0,Female,Turkce,Chrome,Windows,864,1536,7.283566666666666,
888,condition1,skinny,zayıf,woman2_happy_skinny,woman,[0.98],2500,27,,[],33,Confused,,4,0,Female,Turkce,Chrome,Windows,864,1536,7.283566666666666,
888,condition1,closed,kapalı,box_closed_cardboard,box,[0.08],9651,28,,[],33,Confused,,4,0,Female,Turkce,Chrome,Windows,864,1536,7.283566666666666,
888,condition1,square,kare,picture_bw_square,picture,[0.55],50429,29,,[],33,Confused,,4,0,Female,Turkce,Chrome,Windows,864,1536,7.283566666666666,
888,condition1,hat-wearing,şapkalı,man2_bearded_hatted,man,[0.47],17442,30,,[],33,Confused,,4,0,Female,Turkce,Chrome,Windows,864,1536,7.283566666666666,
888,condition1,dirty,kirli,spoon_metal_dirty,spoon,[0.75],12873,31,,[],33,Confused,,4,0,Female,Turkce,Chrome,Windows,864,1536,7.283566666666666,
888,condition1,glossy,parlak,nails_black_glossy,nails,[0.74],5480,32,,[],33,Confused,,4,0,Female,Turkce,Chrome,Windows,864,1536,7.283566666666666,
888,condition1,red,kırmızı,frog_spotted_red,frog,[0.62],2214,33,,[],33,Confused,,4,0,Female,Turkce,Chrome,Windows,864,1536,7.283566666666666,
888,condition1,spotted,benekli,frog_spotted_green,frog,[0.29],3163,34,,[],33,Confused,,4,0,Female,Turkce,Chrome,Windows,864,1536,7.283566666666666,
888,condition1,rectangular,dikdörtgen,picture_bw_rectangular,picture,[0.07],2395,35,,[],33,Confused,,4,0,Female,Turkce,Chrome,Windows,864,1536,7.283566666666666,
888,condition1,small,küçük,bottle_glass_small,bottle,[0.06],2128,36,,[],33,Confused,,4,0,Female,Turkce,Chrome,Windows,864,1536,7.283566666666666,
888,condition1,cardboard,karton,box_closed_cardboard,box,[0.1],4532,37,,[],33,Confused,,4,0,Female,Turkce,Chrome,Windows,864,1536,7.283566666666666,
888,condition1,straight,düz,hair_straight_blond,hair,[0.43],4223,38,,[],33,Confused,,4,0,Female,Turkce,Chrome,Windows,864,1536,7.283566666666666,
888,condition1,triangular,üçgen,earring_big_triangular,earring,[0.07],4916,39,,[],33,Confused,,4,0,Female,Turkce,Chrome,Windows,864,1536,7.283566666666666,
888,condition1,old,yaşlı,man_old_bearded,man,[0.76],19999,40,,[],33,Confused,,4,0,Female,Turkce,Chrome,Windows,864,1536,7.283566666666666,
888,condition1,black and white,siyah beyaz,picture_bw_rectangular,picture,[0.05],3656,41,,[],33,Confused,,4,0,Female,Turkce,Chrome,Windows,864,1536,7.283566666666666,
888,condition1,green,yeşil,frog_spotted_green,frog,[0.05],2521,42,,[],33,Confused,,4,0,Female,Turkce,Chrome,Windows,864,1536,7.283566666666666,
888,condition1,young,genç,man_young_bearded,man,[0.84],3265,43,,[],33,Confused,,4,0,Female,Turkce,Chrome,Windows,864,1536,7.283566666666666,
888,condition1,curly,kıvırcık,hair_curly_blonde,hair,[0.71],61648,44,,[],33,Confused,,4,0,Female,Turkce,Chrome,Windows,864,1536,7.283566666666666,
888,condition1,colored,renkli,picture_colored_rectangular,picture,[0.09],5693,45,,[],33,Confused,,4,0,Female,Turkce,Chrome,Windows,864,1536,7.283566666666666,
888,condition1,blue,mavi,pencil_long_blue,pencil,[0.45],32400,46,,[],33,Confused,,4,0,Female,Turkce,Chrome,Windows,864,1536,7.283566666666666,
888,condition1,striped,çizgili,frog_striped_green,frog,[0.46],3136,47,,[],33,Confused,,4,0,Female,Turkce,Chrome,Windows,864,1536,7.283566666666666,
888,condition1,high,yüksek,table_metal_high,table,[0.83],4176,48,,[],33,Confused,,4,0,Female,Turkce,Chrome,Windows,864,1536,7.283566666666666,
894,condition1,,,,beyaz,Beyaz,0,1,bot_check,[],46,Yes,İlginç ve düşündürücü ,1,1,Female,Türkce,Safari,an unknown OS,1024,768,6.6513333333333335,
894,condition1,metal,metal,spoon_metal_clean,spoon,[0.25],13030,3,,[],46,Yes,İlginç ve düşündürücü ,1,1,Female,Türkce,Safari,an unknown OS,1024,768,6.6513333333333335,
894,condition1,red,kırmızı,frog_spotted_red,frog,[0.45],12870,4,,[],46,Yes,İlginç ve düşündürücü ,1,1,Female,Türkce,Safari,an unknown OS,1024,768,6.6513333333333335,
894,condition1,glossy,parlak,nails_black_glossy,nails,[0.02],5041,5,,[],46,Yes,İlginç ve düşündürücü ,1,1,Female,Türkce,Safari,an unknown OS,1024,768,6.6513333333333335,
894,condition1,cardboard,karton,box_closed_cardboard,box,[0.65],6602,6,,[],46,Yes,İlginç ve düşündürücü ,1,1,Female,Türkce,Safari,an unknown OS,1024,768,6.6513333333333335,
894,condition1,young,genç,man_young_bearded,man,[0.16],9131,7,,[],46,Yes,İlginç ve düşündürücü ,1,1,Female,Türkce,Safari,an unknown OS,1024,768,6.6513333333333335,
894,condition1,brown,kahverengi,hair_curly_brown,hair,[0.68],6182,8,,[],46,Yes,İlginç ve düşündürücü ,1,1,Female,Türkce,Safari,an unknown OS,1024,768,6.6513333333333335,
894,condition1,long,uzun,pencil_long_black,pencil,[0.01],4783,9,,[],46,Yes,İlginç ve düşündürücü ,1,1,Female,Türkce,Safari,an unknown OS,1024,768,6.6513333333333335,
894,condition1,clean-shaven,sakalsız,man_old_cleanshaven,man,[0.02],8465,10,,[],46,Yes,İlginç ve düşündürücü ,1,1,Female,Türkce,Safari,an unknown OS,1024,768,6.6513333333333335,
894,condition1,hat-wearing,şapkalı,man2_bearded_hatted,man,[0.05],5572,11,,[],46,Yes,İlginç ve düşündürücü ,1,1,Female,Türkce,Safari,an unknown OS,1024,768,6.6513333333333335,
894,condition1,dry,kuru,shorts_dry_green,shorts,[0.24],6314,12,,[],46,Yes,İlginç ve düşündürücü ,1,1,Female,Türkce,Safari,an unknown OS,1024,768,6.6513333333333335,
894,condition1,old,yaşlı,man_old_bearded,man,[0.26],6618,13,,[],46,Yes,İlginç ve düşündürücü ,1,1,Female,Türkce,Safari,an unknown OS,1024,768,6.6513333333333335,
894,condition1,wooden,tahta,spoon_wooden_clean,spoon,[0.07],11234,14,,[],46,Yes,İlginç ve düşündürücü ,1,1,Female,Türkce,Safari,an unknown OS,1024,768,6.6513333333333335,
894,condition1,glasses-wearing,gözlüklü,man2_bearded_glassed,man,[0.02],6364,15,,[],46,Yes,İlginç ve düşündürücü ,1,1,Female,Türkce,Safari,an unknown OS,1024,768,6.6513333333333335,
894,condition1,closed,kapalı,box_closed_cardboard,box,[0.19],6587,16,,[],46,Yes,İlginç ve düşündürücü ,1,1,Female,Türkce,Safari,an unknown OS,1024,768,6.6513333333333335,
894,condition1,sad,mutsuz,woman_old_sad,woman,[0.83],23732,17,,[],46,Yes,İlginç ve düşündürücü ,1,1,Female,Türkce,Safari,an unknown OS,1024,768,6.6513333333333335,
894,condition1,rectangular,dikdörtgen,picture_bw_rectangular,picture,[0.11],9081,18,,[],46,Yes,İlginç ve düşündürücü ,1,1,Female,Türkce,Safari,an unknown OS,1024,768,6.6513333333333335,
894,condition1,happy,mutlu,woman_old_happy,woman,[0.89],5367,19,,[],46,Yes,İlginç ve düşündürücü ,1,1,Female,Türkce,Safari,an unknown OS,1024,768,6.6513333333333335,
894,condition1,black,siyah,nails_black_glossy,nails,[0.07],6200,20,,[],46,Yes,İlginç ve düşündürücü ,1,1,Female,Türkce,Safari,an unknown OS,1024,768,6.6513333333333335,
894,condition1,triangular,üçgen,earring_big_triangular,earring,[0.04],5120,21,,[],46,Yes,İlginç ve düşündürücü ,1,1,Female,Türkce,Safari,an unknown OS,1024,768,6.6513333333333335,
894,condition1,small,küçük,bottle_glass_small,bottle,[0.25],4782,22,,[],46,Yes,İlginç ve düşündürücü ,1,1,Female,Türkce,Safari,an unknown OS,1024,768,6.6513333333333335,
894,condition1,open,açık,box_open_cardboard,box,[0.23],7051,23,,[],46,Yes,İlginç ve düşündürücü ,1,1,Female,Türkce,Safari,an unknown OS,1024,768,6.6513333333333335,
894,condition1,blue,mavi,pencil_long_blue,pencil,[0.05],6784,24,,[],46,Yes,İlginç ve düşündürücü ,1,1,Female,Türkce,Safari,an unknown OS,1024,768,6.6513333333333335,
894,condition1,glass,cam,bottle_glass_big,bottle,[0.14],4999,25,,[],46,Yes,İlginç ve düşündürücü ,1,1,Female,Türkce,Safari,an unknown OS,1024,768,6.6513333333333335,
894,condition1,green,yeşil,frog_spotted_green,frog,[0.04],6801,26,,[],46,Yes,İlginç ve düşündürücü ,1,1,Female,Türkce,Safari,an unknown OS,1024,768,6.6513333333333335,
894,condition1,blond,sarı,hair_curly_blonde,hair,[0.19],7966,27,,[],46,Yes,İlginç ve düşündürücü ,1,1,Female,Türkce,Safari,an unknown OS,1024,768,6.6513333333333335,
894,condition1,clean,temiz,spoon_metal_clean,spoon,[0.05],6601,28,,[],46,Yes,İlginç ve düşündürücü ,1,1,Female,Türkce,Safari,an unknown OS,1024,768,6.6513333333333335,
894,condition1,spotted,benekli,frog_spotted_green,frog,[0],4447,29,,[],46,Yes,İlginç ve düşündürücü ,1,1,Female,Türkce,Safari,an unknown OS,1024,768,6.6513333333333335,
894,condition1,colored,renkli,picture_colored_rectangular,picture,[0.05],7816,30,,[],46,Yes,İlginç ve düşündürücü ,1,1,Female,Türkce,Safari,an unknown OS,1024,768,6.6513333333333335,
894,condition1,skinny,zayıf,woman2_happy_skinny,woman,[0.38],7585,31,,[],46,Yes,İlginç ve düşündürücü ,1,1,Female,Türkce,Safari,an unknown OS,1024,768,6.6513333333333335,
894,condition1,matte,mat,nails_black_matte,nails,[0.21],8483,32,,[],46,Yes,İlginç ve düşündürücü ,1,1,Female,Türkce,Safari,an unknown OS,1024,768,6.6513333333333335,
894,condition1,square,kare,picture_bw_square,picture,[0.09],7267,33,,[],46,Yes,İlginç ve düşündürücü ,1,1,Female,Türkce,Safari,an unknown OS,1024,768,6.6513333333333335,
894,condition1,black and white,siyah beyaz,picture_bw_rectangular,picture,[0.14],7967,34,,[],46,Yes,İlginç ve düşündürücü ,1,1,Female,Türkce,Safari,an unknown OS,1024,768,6.6513333333333335,
894,condition1,high,yüksek,table_metal_high,table,[0.49],6083,35,,[],46,Yes,İlginç ve düşündürücü ,1,1,Female,Türkce,Safari,an unknown OS,1024,768,6.6513333333333335,
894,condition1,round,yuvarlak,earring_big_round,earring,[0.06],4437,36,,[],46,Yes,İlginç ve düşündürücü ,1,1,Female,Türkce,Safari,an unknown OS,1024,768,6.6513333333333335,
894,condition1,low,alçak,table_metal_low,table,[0.5],6697,37,,[],46,Yes,İlginç ve düşündürücü ,1,1,Female,Türkce,Safari,an unknown OS,1024,768,6.6513333333333335,
894,condition1,plastic,plastik,bottle_plastic_big,bottle,[0.11],7999,38,,[],46,Yes,İlginç ve düşündürücü ,1,1,Female,Türkce,Safari,an unknown OS,1024,768,6.6513333333333335,
894,condition1,fat,şişman,woman2_happy_fat,woman,[0.11],7235,39,,[],46,Yes,İlginç ve düşündürücü ,1,1,Female,Türkce,Safari,an unknown OS,1024,768,6.6513333333333335,
894,condition1,bearded,sakallı,man_old_bearded,man,[0.01],8614,40,,[],46,Yes,İlginç ve düşündürücü ,1,1,Female,Türkce,Safari,an unknown OS,1024,768,6.6513333333333335,
894,condition1,straight,düz,hair_straight_blond,hair,[0.06],4485,41,,[],46,Yes,İlginç ve düşündürücü ,1,1,Female,Türkce,Safari,an unknown OS,1024,768,6.6513333333333335,
894,condition1,big,büyük,bottle_glass_big,bottle,[0.33],6034,42,,[],46,Yes,İlginç ve düşündürücü ,1,1,Female,Türkce,Safari,an unknown OS,1024,768,6.6513333333333335,
894,condition1,wet,ıslak,shorts_wet_green,shorts,[0.16],5031,43,,[],46,Yes,İlginç ve düşündürücü ,1,1,Female,Türkce,Safari,an unknown OS,1024,768,6.6513333333333335,
894,condition1,striped,çizgili,frog_striped_green,frog,[0.02],3850,44,,[],46,Yes,İlginç ve düşündürücü ,1,1,Female,Türkce,Safari,an unknown OS,1024,768,6.6513333333333335,
894,condition1,short,kısa,pencil_short_black,pencil,[0.01],4402,45,,[],46,Yes,İlginç ve düşündürücü ,1,1,Female,Türkce,Safari,an unknown OS,1024,768,6.6513333333333335,
894,condition1,dirty,kirli,spoon_metal_dirty,spoon,[0.02],3665,46,,[],46,Yes,İlginç ve düşündürücü ,1,1,Female,Türkce,Safari,an unknown OS,1024,768,6.6513333333333335,
894,condition1,mustache-touting,bıyıklı,man2_mustached_glassed,man,[0.01],3584,47,,[],46,Yes,İlginç ve düşündürücü ,1,1,Female,Türkce,Safari,an unknown OS,1024,768,6.6513333333333335,
894,condition1,curly,kıvırcık,hair_curly_blonde,hair,[0.12],5399,48,,[],46,Yes,İlginç ve düşündürücü ,1,1,Female,Türkce,Safari,an unknown OS,1024,768,6.6513333333333335,
908,condition1,,,,beyaz,Beyaz,0,1,bot_check,[],24,Yes,,3,1,Male,Türkçe,Chrome,Mac,800,1280,2.228833333333333,
908,condition1,glossy,parlak,nails_black_glossy,nails,[0.64],5009,3,,[],24,Yes,,3,1,Male,Türkçe,Chrome,Mac,800,1280,2.228833333333333,
908,condition1,straight,düz,hair_straight_blond,hair,[0.66],2447,4,,[],24,Yes,,3,1,Male,Türkçe,Chrome,Mac,800,1280,2.228833333333333,
908,condition1,matte,mat,nails_black_matte,nails,[0.61],1937,5,,[],24,Yes,,3,1,Male,Türkçe,Chrome,Mac,800,1280,2.228833333333333,
908,condition1,closed,kapalı,box_closed_cardboard,box,[0.01],2736,6,,[],24,Yes,,3,1,Male,Türkçe,Chrome,Mac,800,1280,2.228833333333333,
908,condition1,mustache-touting,bıyıklı,man2_mustached_glassed,man,[0.02],2387,7,,[],24,Yes,,3,1,Male,Türkçe,Chrome,Mac,800,1280,2.228833333333333,
908,condition1,glass,cam,bottle_glass_big,bottle,[0.15],3805,8,,[],24,Yes,,3,1,Male,Türkçe,Chrome,Mac,800,1280,2.228833333333333,
908,condition1,skinny,zayıf,woman2_happy_skinny,woman,[0.96],2041,9,,[],24,Yes,,3,1,Male,Türkçe,Chrome,Mac,800,1280,2.228833333333333,
908,condition1,black and white,siyah beyaz,picture_bw_rectangular,picture,[0.87],3154,10,,[],24,Yes,,3,1,Male,Türkçe,Chrome,Mac,800,1280,2.228833333333333,
908,condition1,plastic,plastik,bottle_plastic_big,bottle,[0.09],1977,11,,[],24,Yes,,3,1,Male,Türkçe,Chrome,Mac,800,1280,2.228833333333333,
908,condition1,square,kare,picture_bw_square,picture,[0.02],1965,12,,[],24,Yes,,3,1,Male,Türkçe,Chrome,Mac,800,1280,2.228833333333333,
908,condition1,short,kısa,pencil_short_black,pencil,[0.63],2193,13,,[],24,Yes,,3,1,Male,Türkçe,Chrome,Mac,800,1280,2.228833333333333,
908,condition1,cardboard,karton,box_closed_cardboard,box,[0.07],2966,14,,[],24,Yes,,3,1,Male,Türkçe,Chrome,Mac,800,1280,2.228833333333333,
908,condition1,long,uzun,pencil_long_black,pencil,[0.7],1836,15,,[],24,Yes,,3,1,Male,Türkçe,Chrome,Mac,800,1280,2.228833333333333,
908,condition1,blue,mavi,pencil_long_blue,pencil,[0.82],3359,16,,[],24,Yes,,3,1,Male,Türkçe,Chrome,Mac,800,1280,2.228833333333333,
908,condition1,striped,çizgili,frog_striped_green,frog,[0.04],3532,17,,[],24,Yes,,3,1,Male,Türkçe,Chrome,Mac,800,1280,2.228833333333333,
908,condition1,round,yuvarlak,earring_big_round,earring,[0.02],1936,18,,[],24,Yes,,3,1,Male,Türkçe,Chrome,Mac,800,1280,2.228833333333333,
908,condition1,open,açık,box_open_cardboard,box,[0.1],2535,19,,[],24,Yes,,3,1,Male,Türkçe,Chrome,Mac,800,1280,2.228833333333333,
908,condition1,high,yüksek,table_metal_high,table,[0.73],2070,20,,[],24,Yes,,3,1,Male,Türkçe,Chrome,Mac,800,1280,2.228833333333333,
908,condition1,wooden,tahta,spoon_wooden_clean,spoon,[0.15],2008,21,,[],24,Yes,,3,1,Male,Türkçe,Chrome,Mac,800,1280,2.228833333333333,
908,condition1,big,büyük,bottle_glass_big,bottle,[0.75],1901,22,,[],24,Yes,,3,1,Male,Türkçe,Chrome,Mac,800,1280,2.228833333333333,
908,condition1,low,alçak,table_metal_low,table,[0.72],1672,23,,[],24,Yes,,3,1,Male,Türkçe,Chrome,Mac,800,1280,2.228833333333333,
908,condition1,blond,sarı,hair_curly_blonde,hair,[0.84],2331,24,,[],24,Yes,,3,1,Male,Türkçe,Chrome,Mac,800,1280,2.228833333333333,
908,condition1,glasses-wearing,gözlüklü,man2_bearded_glassed,man,[0.05],2314,25,,[],24,Yes,,3,1,Male,Türkçe,Chrome,Mac,800,1280,2.228833333333333,
908,condition1,happy,mutlu,woman_old_happy,woman,[0.87],2025,26,,[],24,Yes,,3,1,Male,Türkçe,Chrome,Mac,800,1280,2.228833333333333,
908,condition1,sad,mutsuz,woman_old_sad,woman,[0.96],1697,27,,[],24,Yes,,3,1,Male,Türkçe,Chrome,Mac,800,1280,2.228833333333333,
908,condition1,dry,kuru,shorts_dry_green,shorts,[0.14],2526,28,,[],24,Yes,,3,1,Male,Türkçe,Chrome,Mac,800,1280,2.228833333333333,
908,condition1,young,genç,man_young_bearded,man,[0.92],1970,29,,[],24,Yes,,3,1,Male,Türkçe,Chrome,Mac,800,1280,2.228833333333333,
908,condition1,brown,kahverengi,hair_curly_brown,hair,[0.65],2455,30,,[],24,Yes,,3,1,Male,Türkçe,Chrome,Mac,800,1280,2.228833333333333,
908,condition1,green,yeşil,frog_spotted_green,frog,[0.65],2426,31,,[],24,Yes,,3,1,Male,Türkçe,Chrome,Mac,800,1280,2.228833333333333,
908,condition1,rectangular,dikdörtgen,picture_bw_rectangular,picture,[0.05],1946,32,,[],24,Yes,,3,1,Male,Türkçe,Chrome,Mac,800,1280,2.228833333333333,
908,condition1,colored,renkli,picture_colored_rectangular,picture,[0.68],2535,33,,[],24,Yes,,3,1,Male,Türkçe,Chrome,Mac,800,1280,2.228833333333333,
908,condition1,small,küçük,bottle_glass_small,bottle,[0.94],2753,34,,[],24,Yes,,3,1,Male,Türkçe,Chrome,Mac,800,1280,2.228833333333333,
908,condition1,old,yaşlı,man_old_bearded,man,[0.98],2162,35,,[],24,Yes,,3,1,Male,Türkçe,Chrome,Mac,800,1280,2.228833333333333,
908,condition1,triangular,üçgen,earring_big_triangular,earring,[0],2097,36,,[],24,Yes,,3,1,Male,Türkçe,Chrome,Mac,800,1280,2.228833333333333,
908,condition1,clean,temiz,spoon_metal_clean,spoon,[0.73],1902,37,,[],24,Yes,,3,1,Male,Türkçe,Chrome,Mac,800,1280,2.228833333333333,
908,condition1,clean-shaven,sakalsız,man_old_cleanshaven,man,[0.19],2105,38,,[],24,Yes,,3,1,Male,Türkçe,Chrome,Mac,800,1280,2.228833333333333,
908,condition1,wet,ıslak,shorts_wet_green,shorts,[0.57],1841,39,,[],24,Yes,,3,1,Male,Türkçe,Chrome,Mac,800,1280,2.228833333333333,
908,condition1,dirty,kirli,spoon_metal_dirty,spoon,[0.64],1816,40,,[],24,Yes,,3,1,Male,Türkçe,Chrome,Mac,800,1280,2.228833333333333,
908,condition1,fat,şişman,woman2_happy_fat,woman,[0.94],2082,41,,[],24,Yes,,3,1,Male,Türkçe,Chrome,Mac,800,1280,2.228833333333333,
908,condition1,black,siyah,nails_black_glossy,nails,[0.52],2608,42,,[],24,Yes,,3,1,Male,Türkçe,Chrome,Mac,800,1280,2.228833333333333,
908,condition1,metal,metal,spoon_metal_clean,spoon,[0.27],2162,43,,[],24,Yes,,3,1,Male,Türkçe,Chrome,Mac,800,1280,2.228833333333333,
908,condition1,hat-wearing,şapkalı,man2_bearded_hatted,man,[0.01],3139,44,,[],24,Yes,,3,1,Male,Türkçe,Chrome,Mac,800,1280,2.228833333333333,
908,condition1,bearded,sakallı,man_old_bearded,man,[0.14],3452,45,,[],24,Yes,,3,1,Male,Türkçe,Chrome,Mac,800,1280,2.228833333333333,
908,condition1,spotted,benekli,frog_spotted_green,frog,[0.18],3102,46,,[],24,Yes,,3,1,Male,Türkçe,Chrome,Mac,800,1280,2.228833333333333,
908,condition1,curly,kıvırcık,hair_curly_blonde,hair,[0.58],2221,47,,[],24,Yes,,3,1,Male,Türkçe,Chrome,Mac,800,1280,2.228833333333333,
908,condition1,red,kırmızı,frog_spotted_red,frog,[0.61],2596,48,,[],24,Yes,,3,1,Male,Türkçe,Chrome,Mac,800,1280,2.228833333333333,
940,condition1,,,,beyaz,Beyaz,0,1,bot_check,[],27,Yes,Çözmesi hoşuma giden bir deney oldu.,4,1,Male,Türkçe,Chrome,Windows,768,1366,3.31615,
940,condition1,round,yuvarlak,earring_big_round,earring,[1],13023,3,,[],27,Yes,Çözmesi hoşuma giden bir deney oldu.,4,1,Male,Türkçe,Chrome,Windows,768,1366,3.31615,
940,condition1,striped,çizgili,frog_striped_green,frog,[1],2048,4,,[],27,Yes,Çözmesi hoşuma giden bir deney oldu.,4,1,Male,Türkçe,Chrome,Windows,768,1366,3.31615,
940,condition1,wooden,tahta,spoon_wooden_clean,spoon,[1],2248,5,,[],27,Yes,Çözmesi hoşuma giden bir deney oldu.,4,1,Male,Türkçe,Chrome,Windows,768,1366,3.31615,
940,condition1,short,kısa,pencil_short_black,pencil,[0.99],2041,6,,[],27,Yes,Çözmesi hoşuma giden bir deney oldu.,4,1,Male,Türkçe,Chrome,Windows,768,1366,3.31615,
940,condition1,dry,kuru,shorts_dry_green,shorts,[1],6055,7,,[],27,Yes,Çözmesi hoşuma giden bir deney oldu.,4,1,Male,Türkçe,Chrome,Windows,768,1366,3.31615,
940,condition1,hat-wearing,şapkalı,man2_bearded_hatted,man,[0],2872,8,,[],27,Yes,Çözmesi hoşuma giden bir deney oldu.,4,1,Male,Türkçe,Chrome,Windows,768,1366,3.31615,
940,condition1,dirty,kirli,spoon_metal_dirty,spoon,[0],2504,9,,[],27,Yes,Çözmesi hoşuma giden bir deney oldu.,4,1,Male,Türkçe,Chrome,Windows,768,1366,3.31615,
940,condition1,closed,kapalı,box_closed_cardboard,box,[1],2120,10,,[],27,Yes,Çözmesi hoşuma giden bir deney oldu.,4,1,Male,Türkçe,Chrome,Windows,768,1366,3.31615,
940,condition1,metal,metal,spoon_metal_clean,spoon,[0],3064,11,,[],27,Yes,Çözmesi hoşuma giden bir deney oldu.,4,1,Male,Türkçe,Chrome,Windows,768,1366,3.31615,
940,condition1,spotted,benekli,frog_spotted_green,frog,[1],3071,12,,[],27,Yes,Çözmesi hoşuma giden bir deney oldu.,4,1,Male,Türkçe,Chrome,Windows,768,1366,3.31615,
940,condition1,black and white,siyah beyaz,picture_bw_rectangular,picture,[0],3449,13,,[],27,Yes,Çözmesi hoşuma giden bir deney oldu.,4,1,Male,Türkçe,Chrome,Windows,768,1366,3.31615,
940,condition1,old,yaşlı,man_old_bearded,man,[0],2631,14,,[],27,Yes,Çözmesi hoşuma giden bir deney oldu.,4,1,Male,Türkçe,Chrome,Windows,768,1366,3.31615,
940,condition1,clean-shaven,sakalsız,man_old_cleanshaven,man,[0],15230,15,,[],27,Yes,Çözmesi hoşuma giden bir deney oldu.,4,1,Male,Türkçe,Chrome,Windows,768,1366,3.31615,
940,condition1,triangular,üçgen,earring_big_triangular,earring,[0.02],3690,16,,[],27,Yes,Çözmesi hoşuma giden bir deney oldu.,4,1,Male,Türkçe,Chrome,Windows,768,1366,3.31615,
940,condition1,sad,mutsuz,woman_old_sad,woman,[1],3552,17,,[],27,Yes,Çözmesi hoşuma giden bir deney oldu.,4,1,Male,Türkçe,Chrome,Windows,768,1366,3.31615,
940,condition1,high,yüksek,table_metal_high,table,[1],3376,18,,[],27,Yes,Çözmesi hoşuma giden bir deney oldu.,4,1,Male,Türkçe,Chrome,Windows,768,1366,3.31615,
940,condition1,matte,mat,nails_black_matte,nails,[1],4024,19,,[],27,Yes,Çözmesi hoşuma giden bir deney oldu.,4,1,Male,Türkçe,Chrome,Windows,768,1366,3.31615,
940,condition1,open,açık,box_open_cardboard,box,[0],3168,20,,[],27,Yes,Çözmesi hoşuma giden bir deney oldu.,4,1,Male,Türkçe,Chrome,Windows,768,1366,3.31615,
940,condition1,happy,mutlu,woman_old_happy,woman,[1],3968,21,,[],27,Yes,Çözmesi hoşuma giden bir deney oldu.,4,1,Male,Türkçe,Chrome,Windows,768,1366,3.31615,
940,condition1,young,genç,man_young_bearded,man,[0],2904,22,,[],27,Yes,Çözmesi hoşuma giden bir deney oldu.,4,1,Male,Türkçe,Chrome,Windows,768,1366,3.31615,
940,condition1,blue,mavi,pencil_long_blue,pencil,[0],5287,23,,[],27,Yes,Çözmesi hoşuma giden bir deney oldu.,4,1,Male,Türkçe,Chrome,Windows,768,1366,3.31615,
940,condition1,brown,kahverengi,hair_curly_brown,hair,[0],2472,24,,[],27,Yes,Çözmesi hoşuma giden bir deney oldu.,4,1,Male,Türkçe,Chrome,Windows,768,1366,3.31615,
940,condition1,black,siyah,nails_black_glossy,nails,[0],1808,25,,[],27,Yes,Çözmesi hoşuma giden bir deney oldu.,4,1,Male,Türkçe,Chrome,Windows,768,1366,3.31615,
940,condition1,cardboard,karton,box_closed_cardboard,box,[0],2433,26,,[],27,Yes,Çözmesi hoşuma giden bir deney oldu.,4,1,Male,Türkçe,Chrome,Windows,768,1366,3.31615,
940,condition1,mustache-touting,bıyıklı,man2_mustached_glassed,man,[0],3591,27,,[],27,Yes,Çözmesi hoşuma giden bir deney oldu.,4,1,Male,Türkçe,Chrome,Windows,768,1366,3.31615,
940,condition1,fat,şişman,woman2_happy_fat,woman,[1],3544,28,,[],27,Yes,Çözmesi hoşuma giden bir deney oldu.,4,1,Male,Türkçe,Chrome,Windows,768,1366,3.31615,
940,condition1,wet,ıslak,shorts_wet_green,shorts,[1],2240,29,,[],27,Yes,Çözmesi hoşuma giden bir deney oldu.,4,1,Male,Türkçe,Chrome,Windows,768,1366,3.31615,
940,condition1,green,yeşil,frog_spotted_green,frog,[0],2392,30,,[],27,Yes,Çözmesi hoşuma giden bir deney oldu.,4,1,Male,Türkçe,Chrome,Windows,768,1366,3.31615,
940,condition1,square,kare,picture_bw_square,picture,[0],2920,31,,[],27,Yes,Çözmesi hoşuma giden bir deney oldu.,4,1,Male,Türkçe,Chrome,Windows,768,1366,3.31615,
940,condition1,small,küçük,bottle_glass_small,bottle,[0],2792,32,,[],27,Yes,Çözmesi hoşuma giden bir deney oldu.,4,1,Male,Türkçe,Chrome,Windows,768,1366,3.31615,
940,condition1,long,uzun,pencil_long_black,pencil,[0],2272,33,,[],27,Yes,Çözmesi hoşuma giden bir deney oldu.,4,1,Male,Türkçe,Chrome,Windows,768,1366,3.31615,
940,condition1,low,alçak,table_metal_low,table,[0],2167,34,,[],27,Yes,Çözmesi hoşuma giden bir deney oldu.,4,1,Male,Türkçe,Chrome,Windows,768,1366,3.31615,
940,condition1,clean,temiz,spoon_metal_clean,spoon,[0],2200,35,,[],27,Yes,Çözmesi hoşuma giden bir deney oldu.,4,1,Male,Türkçe,Chrome,Windows,768,1366,3.31615,
940,condition1,bearded,sakallı,man_old_bearded,man,[0],2560,36,,[],27,Yes,Çözmesi hoşuma giden bir deney oldu.,4,1,Male,Türkçe,Chrome,Windows,768,1366,3.31615,
940,condition1,rectangular,dikdörtgen,picture_bw_rectangular,picture,[0],1849,37,,[],27,Yes,Çözmesi hoşuma giden bir deney oldu.,4,1,Male,Türkçe,Chrome,Windows,768,1366,3.31615,
940,condition1,skinny,zayıf,woman2_happy_skinny,woman,[1],3255,38,,[],27,Yes,Çözmesi hoşuma giden bir deney oldu.,4,1,Male,Türkçe,Chrome,Windows,768,1366,3.31615,
940,condition1,curly,kıvırcık,hair_curly_blonde,hair,[0],1832,39,,[],27,Yes,Çözmesi hoşuma giden bir deney oldu.,4,1,Male,Türkçe,Chrome,Windows,768,1366,3.31615,
940,condition1,glasses-wearing,gözlüklü,man2_bearded_glassed,man,[0],1807,40,,[],27,Yes,Çözmesi hoşuma giden bir deney oldu.,4,1,Male,Türkçe,Chrome,Windows,768,1366,3.31615,
940,condition1,plastic,plastik,bottle_plastic_big,bottle,[1],3983,41,,[],27,Yes,Çözmesi hoşuma giden bir deney oldu.,4,1,Male,Türkçe,Chrome,Windows,768,1366,3.31615,
940,condition1,big,büyük,bottle_glass_big,bottle,[1],2399,42,,[],27,Yes,Çözmesi hoşuma giden bir deney oldu.,4,1,Male,Türkçe,Chrome,Windows,768,1366,3.31615,
940,condition1,blond,sarı,hair_curly_blonde,hair,[0],2465,43,,[],27,Yes,Çözmesi hoşuma giden bir deney oldu.,4,1,Male,Türkçe,Chrome,Windows,768,1366,3.31615,
940,condition1,straight,düz,hair_straight_blond,hair,[0],1751,44,,[],27,Yes,Çözmesi hoşuma giden bir deney oldu.,4,1,Male,Türkçe,Chrome,Windows,768,1366,3.31615,
940,condition1,red,kırmızı,frog_spotted_red,frog,[0],2137,45,,[],27,Yes,Çözmesi hoşuma giden bir deney oldu.,4,1,Male,Türkçe,Chrome,Windows,768,1366,3.31615,
940,condition1,colored,renkli,picture_colored_rectangular,picture,[0],1976,46,,[],27,Yes,Çözmesi hoşuma giden bir deney oldu.,4,1,Male,Türkçe,Chrome,Windows,768,1366,3.31615,
940,condition1,glass,cam,bottle_glass_big,bottle,[1],3176,47,,[],27,Yes,Çözmesi hoşuma giden bir deney oldu.,4,1,Male,Türkçe,Chrome,Windows,768,1366,3.31615,
940,condition1,glossy,parlak,nails_black_glossy,nails,[1],2080,48,,[],27,Yes,Çözmesi hoşuma giden bir deney oldu.,4,1,Male,Türkçe,Chrome,Windows,768,1366,3.31615,
929,condition1,,,,beyaz,Beyaz,0,1,bot_check,[],33,Yes,,3,1,Male,Türkçe ve ibgilizce,Chrome,Linux,640,360,5.105166666666666,
929,condition1,hat-wearing,şapkalı,man2_bearded_hatted,man,[0.51],20825,3,,[],33,Yes,,3,1,Male,Türkçe ve ibgilizce,Chrome,Linux,640,360,5.105166666666666,
929,condition1,dry,kuru,shorts_dry_green,shorts,[0.52],5984,4,,[],33,Yes,,3,1,Male,Türkçe ve ibgilizce,Chrome,Linux,640,360,5.105166666666666,
929,condition1,round,yuvarlak,earring_big_round,earring,[0.42],4574,5,,[],33,Yes,,3,1,Male,Türkçe ve ibgilizce,Chrome,Linux,640,360,5.105166666666666,
929,condition1,straight,düz,hair_straight_blond,hair,[0.52],9822,6,,[],33,Yes,,3,1,Male,Türkçe ve ibgilizce,Chrome,Linux,640,360,5.105166666666666,
929,condition1,spotted,benekli,frog_spotted_green,frog,[0.55],3925,7,,[],33,Yes,,3,1,Male,Türkçe ve ibgilizce,Chrome,Linux,640,360,5.105166666666666,
929,condition1,glasses-wearing,gözlüklü,man2_bearded_glassed,man,[0.03],8329,8,,[],33,Yes,,3,1,Male,Türkçe ve ibgilizce,Chrome,Linux,640,360,5.105166666666666,
929,condition1,rectangular,dikdörtgen,picture_bw_rectangular,picture,[0.24],4006,9,,[],33,Yes,,3,1,Male,Türkçe ve ibgilizce,Chrome,Linux,640,360,5.105166666666666,
929,condition1,curly,kıvırcık,hair_curly_blonde,hair,[0.48],4168,10,,[],33,Yes,,3,1,Male,Türkçe ve ibgilizce,Chrome,Linux,640,360,5.105166666666666,
929,condition1,happy,mutlu,woman_old_happy,woman,[0.97],5307,11,,[],33,Yes,,3,1,Male,Türkçe ve ibgilizce,Chrome,Linux,640,360,5.105166666666666,
929,condition1,glossy,parlak,nails_black_glossy,nails,[0.59],6578,12,,[],33,Yes,,3,1,Male,Türkçe ve ibgilizce,Chrome,Linux,640,360,5.105166666666666,
929,condition1,dirty,kirli,spoon_metal_dirty,spoon,[0.96],7396,13,,[],33,Yes,,3,1,Male,Türkçe ve ibgilizce,Chrome,Linux,640,360,5.105166666666666,
929,condition1,black,siyah,nails_black_glossy,nails,[0.02],4723,14,,[],33,Yes,,3,1,Male,Türkçe ve ibgilizce,Chrome,Linux,640,360,5.105166666666666,
929,condition1,red,kırmızı,frog_spotted_red,frog,[0.02],3825,15,,[],33,Yes,,3,1,Male,Türkçe ve ibgilizce,Chrome,Linux,640,360,5.105166666666666,
929,condition1,big,büyük,bottle_glass_big,bottle,[0.99],32620,16,,[],33,Yes,,3,1,Male,Türkçe ve ibgilizce,Chrome,Linux,640,360,5.105166666666666,
929,condition1,black and white,siyah beyaz,picture_bw_rectangular,picture,[0.02],6153,17,,[],33,Yes,,3,1,Male,Türkçe ve ibgilizce,Chrome,Linux,640,360,5.105166666666666,
929,condition1,low,alçak,table_metal_low,table,[0.71],3967,18,,[],33,Yes,,3,1,Male,Türkçe ve ibgilizce,Chrome,Linux,640,360,5.105166666666666,
929,condition1,young,genç,man_young_bearded,man,[0.78],4004,19,,[],33,Yes,,3,1,Male,Türkçe ve ibgilizce,Chrome,Linux,640,360,5.105166666666666,
929,condition1,green,yeşil,frog_spotted_green,frog,[0.03],4135,20,,[],33,Yes,,3,1,Male,Türkçe ve ibgilizce,Chrome,Linux,640,360,5.105166666666666,
929,condition1,clean-shaven,sakalsız,man_old_cleanshaven,man,[0.35],6525,21,,[],33,Yes,,3,1,Male,Türkçe ve ibgilizce,Chrome,Linux,640,360,5.105166666666666,
929,condition1,bearded,sakallı,man_old_bearded,man,[0.64],7409,22,,[],33,Yes,,3,1,Male,Türkçe ve ibgilizce,Chrome,Linux,640,360,5.105166666666666,
929,condition1,blond,sarı,hair_curly_blonde,hair,[0.57],4453,23,,[],33,Yes,,3,1,Male,Türkçe ve ibgilizce,Chrome,Linux,640,360,5.105166666666666,
929,condition1,plastic,plastik,bottle_plastic_big,bottle,[0.01],4919,24,,[],33,Yes,,3,1,Male,Türkçe ve ibgilizce,Chrome,Linux,640,360,5.105166666666666,
929,condition1,striped,çizgili,frog_striped_green,frog,[0.33],3270,25,,[],33,Yes,,3,1,Male,Türkçe ve ibgilizce,Chrome,Linux,640,360,5.105166666666666,
929,condition1,long,uzun,pencil_long_black,pencil,[0.66],3727,26,,[],33,Yes,,3,1,Male,Türkçe ve ibgilizce,Chrome,Linux,640,360,5.105166666666666,
929,condition1,square,kare,picture_bw_square,picture,[0.03],3201,27,,[],33,Yes,,3,1,Male,Türkçe ve ibgilizce,Chrome,Linux,640,360,5.105166666666666,
929,condition1,skinny,zayıf,woman2_happy_skinny,woman,[0.4],2840,28,,[],33,Yes,,3,1,Male,Türkçe ve ibgilizce,Chrome,Linux,640,360,5.105166666666666,
929,condition1,brown,kahverengi,hair_curly_brown,hair,[0.66],4546,29,,[],33,Yes,,3,1,Male,Türkçe ve ibgilizce,Chrome,Linux,640,360,5.105166666666666,
929,condition1,small,küçük,bottle_glass_small,bottle,[0.73],5500,30,,[],33,Yes,,3,1,Male,Türkçe ve ibgilizce,Chrome,Linux,640,360,5.105166666666666,
929,condition1,short,kısa,pencil_short_black,pencil,[0.73],3317,31,,[],33,Yes,,3,1,Male,Türkçe ve ibgilizce,Chrome,Linux,640,360,5.105166666666666,
929,condition1,open,açık,box_open_cardboard,box,[0],4360,32,,[],33,Yes,,3,1,Male,Türkçe ve ibgilizce,Chrome,Linux,640,360,5.105166666666666,
929,condition1,triangular,üçgen,earring_big_triangular,earring,[0.01],3789,33,,[],33,Yes,,3,1,Male,Türkçe ve ibgilizce,Chrome,Linux,640,360,5.105166666666666,
929,condition1,clean,temiz,spoon_metal_clean,spoon,[0.67],5281,34,,[],33,Yes,,3,1,Male,Türkçe ve ibgilizce,Chrome,Linux,640,360,5.105166666666666,
929,condition1,matte,mat,nails_black_matte,nails,[0.73],4105,35,,[],33,Yes,,3,1,Male,Türkçe ve ibgilizce,Chrome,Linux,640,360,5.105166666666666,
929,condition1,wet,ıslak,shorts_wet_green,shorts,[0.53],4349,36,,[],33,Yes,,3,1,Male,Türkçe ve ibgilizce,Chrome,Linux,640,360,5.105166666666666,
929,condition1,colored,renkli,picture_colored_rectangular,picture,[0.01],13805,37,,[],33,Yes,,3,1,Male,Türkçe ve ibgilizce,Chrome,Linux,640,360,5.105166666666666,
929,condition1,wooden,tahta,spoon_wooden_clean,spoon,[0.01],2733,38,,[],33,Yes,,3,1,Male,Türkçe ve ibgilizce,Chrome,Linux,640,360,5.105166666666666,
929,condition1,high,yüksek,table_metal_high,table,[0.74],2884,39,,[],33,Yes,,3,1,Male,Türkçe ve ibgilizce,Chrome,Linux,640,360,5.105166666666666,
929,condition1,sad,mutsuz,woman_old_sad,woman,[0.96],2982,40,,[],33,Yes,,3,1,Male,Türkçe ve ibgilizce,Chrome,Linux,640,360,5.105166666666666,
929,condition1,glass,cam,bottle_glass_big,bottle,[0.02],2618,41,,[],33,Yes,,3,1,Male,Türkçe ve ibgilizce,Chrome,Linux,640,360,5.105166666666666,
929,condition1,closed,kapalı,box_closed_cardboard,box,[0.04],2105,42,,[],33,Yes,,3,1,Male,Türkçe ve ibgilizce,Chrome,Linux,640,360,5.105166666666666,
929,condition1,old,yaşlı,man_old_bearded,man,[0.73],3422,43,,[],33,Yes,,3,1,Male,Türkçe ve ibgilizce,Chrome,Linux,640,360,5.105166666666666,
929,condition1,fat,şişman,woman2_happy_fat,woman,[0.91],3534,44,,[],33,Yes,,3,1,Male,Türkçe ve ibgilizce,Chrome,Linux,640,360,5.105166666666666,
929,condition1,cardboard,karton,box_closed_cardboard,box,[0.03],2470,45,,[],33,Yes,,3,1,Male,Türkçe ve ibgilizce,Chrome,Linux,640,360,5.105166666666666,
929,condition1,blue,mavi,pencil_long_blue,pencil,[0.17],4920,46,,[],33,Yes,,3,1,Male,Türkçe ve ibgilizce,Chrome,Linux,640,360,5.105166666666666,
929,condition1,mustache-touting,bıyıklı,man2_mustached_glassed,man,[0.25],2823,47,,[],33,Yes,,3,1,Male,Türkçe ve ibgilizce,Chrome,Linux,640,360,5.105166666666666,
929,condition1,metal,metal,spoon_metal_clean,spoon,[0.01],5054,48,,[],33,Yes,,3,1,Male,Türkçe ve ibgilizce,Chrome,Linux,640,360,5.105166666666666,
934,condition1,,,,beyaz,Beyaz,0,1,bot_check,[],37,Yes,,3,2,Male,Turkce,Firefox,Windows,1080,1920,5.66435,
934,condition1,wet,ıslak,shorts_wet_green,shorts,[0],20909,3,,[],37,Yes,,3,2,Male,Turkce,Firefox,Windows,1080,1920,5.66435,
934,condition1,black,siyah,nails_black_glossy,nails,[0],6847,4,,[],37,Yes,,3,2,Male,Turkce,Firefox,Windows,1080,1920,5.66435,
934,condition1,cardboard,karton,box_closed_cardboard,box,[0.46],6880,5,,[],37,Yes,,3,2,Male,Turkce,Firefox,Windows,1080,1920,5.66435,
934,condition1,old,yaşlı,man_old_bearded,man,[1],13640,6,,[],37,Yes,,3,2,Male,Turkce,Firefox,Windows,1080,1920,5.66435,
934,condition1,skinny,zayıf,woman2_happy_skinny,woman,[0.59],9999,7,,[],37,Yes,,3,2,Male,Turkce,Firefox,Windows,1080,1920,5.66435,
934,condition1,metal,metal,spoon_metal_clean,spoon,[0],4528,8,,[],37,Yes,,3,2,Male,Turkce,Firefox,Windows,1080,1920,5.66435,
934,condition1,curly,kıvırcık,hair_curly_blonde,hair,[0],5048,9,,[],37,Yes,,3,2,Male,Turkce,Firefox,Windows,1080,1920,5.66435,
934,condition1,blond,sarı,hair_curly_blonde,hair,[0],3503,10,,[],37,Yes,,3,2,Male,Turkce,Firefox,Windows,1080,1920,5.66435,
934,condition1,wooden,tahta,spoon_wooden_clean,spoon,[0],2808,11,,[],37,Yes,,3,2,Male,Turkce,Firefox,Windows,1080,1920,5.66435,
934,condition1,triangular,üçgen,earring_big_triangular,earring,[0],3072,12,,[],37,Yes,,3,2,Male,Turkce,Firefox,Windows,1080,1920,5.66435,
934,condition1,fat,şişman,woman2_happy_fat,woman,[0.68],5408,13,,[],37,Yes,,3,2,Male,Turkce,Firefox,Windows,1080,1920,5.66435,
934,condition1,dry,kuru,shorts_dry_green,shorts,[0],3672,14,,[],37,Yes,,3,2,Male,Turkce,Firefox,Windows,1080,1920,5.66435,
934,condition1,spotted,benekli,frog_spotted_green,frog,[0],3360,15,,[],37,Yes,,3,2,Male,Turkce,Firefox,Windows,1080,1920,5.66435,
934,condition1,blue,mavi,pencil_long_blue,pencil,[0],2719,16,,[],37,Yes,,3,2,Male,Turkce,Firefox,Windows,1080,1920,5.66435,
934,condition1,straight,düz,hair_straight_blond,hair,[0],3744,17,,[],37,Yes,,3,2,Male,Turkce,Firefox,Windows,1080,1920,5.66435,
934,condition1,matte,mat,nails_black_matte,nails,[0.78],5528,18,,[],37,Yes,,3,2,Male,Turkce,Firefox,Windows,1080,1920,5.66435,
934,condition1,green,yeşil,frog_spotted_green,frog,[0],2528,19,,[],37,Yes,,3,2,Male,Turkce,Firefox,Windows,1080,1920,5.66435,
934,condition1,open,açık,box_open_cardboard,box,[0],3142,20,,[],37,Yes,,3,2,Male,Turkce,Firefox,Windows,1080,1920,5.66435,
934,condition1,long,uzun,pencil_long_black,pencil,[0.48],6128,21,,[],37,Yes,,3,2,Male,Turkce,Firefox,Windows,1080,1920,5.66435,
934,condition1,glasses-wearing,gözlüklü,man2_bearded_glassed,man,[0],3072,22,,[],37,Yes,,3,2,Male,Turkce,Firefox,Windows,1080,1920,5.66435,
934,condition1,dirty,kirli,spoon_metal_dirty,spoon,[1],4567,23,,[],37,Yes,,3,2,Male,Turkce,Firefox,Windows,1080,1920,5.66435,
934,condition1,bearded,sakallı,man_old_bearded,man,[0],2648,24,,[],37,Yes,,3,2,Male,Turkce,Firefox,Windows,1080,1920,5.66435,
934,condition1,hat-wearing,şapkalı,man2_bearded_hatted,man,[0],3224,25,,[],37,Yes,,3,2,Male,Turkce,Firefox,Windows,1080,1920,5.66435,
934,condition1,rectangular,dikdörtgen,picture_bw_rectangular,picture,[0],4856,26,,[],37,Yes,,3,2,Male,Turkce,Firefox,Windows,1080,1920,5.66435,
934,condition1,sad,mutsuz,woman_old_sad,woman,[1],3591,27,,[],37,Yes,,3,2,Male,Turkce,Firefox,Windows,1080,1920,5.66435,
934,condition1,black and white,siyah beyaz,picture_bw_rectangular,picture,[0],3088,28,,[],37,Yes,,3,2,Male,Turkce,Firefox,Windows,1080,1920,5.66435,
934,condition1,round,yuvarlak,earring_big_round,earring,[0],2584,29,,[],37,Yes,,3,2,Male,Turkce,Firefox,Windows,1080,1920,5.66435,
934,condition1,plastic,plastik,bottle_plastic_big,bottle,[0.48],3616,30,,[],37,Yes,,3,2,Male,Turkce,Firefox,Windows,1080,1920,5.66435,
934,condition1,striped,çizgili,frog_striped_green,frog,[0.02],2975,31,,[],37,Yes,,3,2,Male,Turkce,Firefox,Windows,1080,1920,5.66435,
934,condition1,mustache-touting,bıyıklı,man2_mustached_glassed,man,[0],5936,32,,[],37,Yes,,3,2,Male,Turkce,Firefox,Windows,1080,1920,5.66435,
934,condition1,short,kısa,pencil_short_black,pencil,[0.56],8024,33,,[],37,Yes,,3,2,Male,Turkce,Firefox,Windows,1080,1920,5.66435,
934,condition1,glossy,parlak,nails_black_glossy,nails,[0.57],3233,34,,[],37,Yes,,3,2,Male,Turkce,Firefox,Windows,1080,1920,5.66435,
934,condition1,glass,cam,bottle_glass_big,bottle,[0],2391,35,,[],37,Yes,,3,2,Male,Turkce,Firefox,Windows,1080,1920,5.66435,
934,condition1,clean-shaven,sakalsız,man_old_cleanshaven,man,[0.46],5463,36,,[],37,Yes,,3,2,Male,Turkce,Firefox,Windows,1080,1920,5.66435,
934,condition1,big,büyük,bottle_glass_big,bottle,[0.51],3576,37,,[],37,Yes,,3,2,Male,Turkce,Firefox,Windows,1080,1920,5.66435,
934,condition1,square,kare,picture_bw_square,picture,[0],2343,38,,[],37,Yes,,3,2,Male,Turkce,Firefox,Windows,1080,1920,5.66435,
934,condition1,clean,temiz,spoon_metal_clean,spoon,[0.68],2408,39,,[],37,Yes,,3,2,Male,Turkce,Firefox,Windows,1080,1920,5.66435,
934,condition1,red,kırmızı,frog_spotted_red,frog,[0],2249,40,,[],37,Yes,,3,2,Male,Turkce,Firefox,Windows,1080,1920,5.66435,
934,condition1,young,genç,man_young_bearded,man,[1],3855,41,,[],37,Yes,,3,2,Male,Turkce,Firefox,Windows,1080,1920,5.66435,
934,condition1,low,alçak,table_metal_low,table,[0.33],5584,42,,[],37,Yes,,3,2,Male,Turkce,Firefox,Windows,1080,1920,5.66435,
934,condition1,closed,kapalı,box_closed_cardboard,box,[0.25],2872,43,,[],37,Yes,,3,2,Male,Turkce,Firefox,Windows,1080,1920,5.66435,
934,condition1,small,küçük,bottle_glass_small,bottle,[0.16],6639,44,,[],37,Yes,,3,2,Male,Turkce,Firefox,Windows,1080,1920,5.66435,
934,condition1,brown,kahverengi,hair_curly_brown,hair,[0],2568,45,,[],37,Yes,,3,2,Male,Turkce,Firefox,Windows,1080,1920,5.66435,
934,condition1,happy,mutlu,woman_old_happy,woman,[1],4496,46,,[],37,Yes,,3,2,Male,Turkce,Firefox,Windows,1080,1920,5.66435,
934,condition1,high,yüksek,table_metal_high,table,[0.48],6016,47,,[],37,Yes,,3,2,Male,Turkce,Firefox,Windows,1080,1920,5.66435,
934,condition1,colored,renkli,picture_colored_rectangular,picture,[0],2743,48,,[],37,Yes,,3,2,Male,Turkce,Firefox,Windows,1080,1920,5.66435,
904,condition1,,,,beyaz,beyaz,0,1,bot_check,[],38,Yes,Deneydeki sorular daha netti.,4,2,Male,TÜRKÇE,Chrome,Windows,768,1366,4.382716666666667,
904,condition1,clean,temiz,spoon_metal_clean,spoon,[0.99],9030,3,,[],38,Yes,Deneydeki sorular daha netti.,4,2,Male,TÜRKÇE,Chrome,Windows,768,1366,4.382716666666667,
904,condition1,young,genç,man_young_bearded,man,[0.01],8065,4,,[],38,Yes,Deneydeki sorular daha netti.,4,2,Male,TÜRKÇE,Chrome,Windows,768,1366,4.382716666666667,
904,condition1,glass,cam,bottle_glass_big,bottle,[0.01],6049,5,,[],38,Yes,Deneydeki sorular daha netti.,4,2,Male,TÜRKÇE,Chrome,Windows,768,1366,4.382716666666667,
904,condition1,black and white,siyah beyaz,picture_bw_rectangular,picture,[0],13540,6,,[],38,Yes,Deneydeki sorular daha netti.,4,2,Male,TÜRKÇE,Chrome,Windows,768,1366,4.382716666666667,
904,condition1,colored,renkli,picture_colored_rectangular,picture,[0.01],4198,7,,[],38,Yes,Deneydeki sorular daha netti.,4,2,Male,TÜRKÇE,Chrome,Windows,768,1366,4.382716666666667,
904,condition1,square,kare,picture_bw_square,picture,[0],3682,8,,[],38,Yes,Deneydeki sorular daha netti.,4,2,Male,TÜRKÇE,Chrome,Windows,768,1366,4.382716666666667,
904,condition1,skinny,zayıf,woman2_happy_skinny,woman,[0.98],3814,9,,[],38,Yes,Deneydeki sorular daha netti.,4,2,Male,TÜRKÇE,Chrome,Windows,768,1366,4.382716666666667,
904,condition1,wooden,tahta,spoon_wooden_clean,spoon,[0.02],4694,10,,[],38,Yes,Deneydeki sorular daha netti.,4,2,Male,TÜRKÇE,Chrome,Windows,768,1366,4.382716666666667,
904,condition1,dirty,kirli,spoon_metal_dirty,spoon,[0.99],3475,11,,[],38,Yes,Deneydeki sorular daha netti.,4,2,Male,TÜRKÇE,Chrome,Windows,768,1366,4.382716666666667,
904,condition1,old,yaşlı,man_old_bearded,man,[0.97],3681,12,,[],38,Yes,Deneydeki sorular daha netti.,4,2,Male,TÜRKÇE,Chrome,Windows,768,1366,4.382716666666667,
904,condition1,green,yeşil,frog_spotted_green,frog,[0.02],4885,13,,[],38,Yes,Deneydeki sorular daha netti.,4,2,Male,TÜRKÇE,Chrome,Windows,768,1366,4.382716666666667,
904,condition1,matte,mat,nails_black_matte,nails,[0.98],6606,14,,[],38,Yes,Deneydeki sorular daha netti.,4,2,Male,TÜRKÇE,Chrome,Windows,768,1366,4.382716666666667,
904,condition1,short,kısa,pencil_short_black,pencil,[0.79],5398,15,,[],38,Yes,Deneydeki sorular daha netti.,4,2,Male,TÜRKÇE,Chrome,Windows,768,1366,4.382716666666667,
904,condition1,bearded,sakallı,man_old_bearded,man,[0.6],2880,16,,[],38,Yes,Deneydeki sorular daha netti.,4,2,Male,TÜRKÇE,Chrome,Windows,768,1366,4.382716666666667,
904,condition1,triangular,üçgen,earring_big_triangular,earring,[0.01],3367,17,,[],38,Yes,Deneydeki sorular daha netti.,4,2,Male,TÜRKÇE,Chrome,Windows,768,1366,4.382716666666667,
904,condition1,small,küçük,bottle_glass_small,bottle,[0.29],4884,18,,[],38,Yes,Deneydeki sorular daha netti.,4,2,Male,TÜRKÇE,Chrome,Windows,768,1366,4.382716666666667,
904,condition1,round,yuvarlak,earring_big_round,earring,[0.19],5436,19,,[],38,Yes,Deneydeki sorular daha netti.,4,2,Male,TÜRKÇE,Chrome,Windows,768,1366,4.382716666666667,
904,condition1,hat-wearing,şapkalı,man2_bearded_hatted,man,[0.01],4449,20,,[],38,Yes,Deneydeki sorular daha netti.,4,2,Male,TÜRKÇE,Chrome,Windows,768,1366,4.382716666666667,
904,condition1,wet,ıslak,shorts_wet_green,shorts,[0.15],3350,21,,[],38,Yes,Deneydeki sorular daha netti.,4,2,Male,TÜRKÇE,Chrome,Windows,768,1366,4.382716666666667,
904,condition1,rectangular,dikdörtgen,picture_bw_rectangular,picture,[0.09],4006,22,,[],38,Yes,Deneydeki sorular daha netti.,4,2,Male,TÜRKÇE,Chrome,Windows,768,1366,4.382716666666667,
904,condition1,mustache-touting,bıyıklı,man2_mustached_glassed,man,[0.56],4141,23,,[],38,Yes,Deneydeki sorular daha netti.,4,2,Male,TÜRKÇE,Chrome,Windows,768,1366,4.382716666666667,
904,condition1,big,büyük,bottle_glass_big,bottle,[0.6],3779,24,,[],38,Yes,Deneydeki sorular daha netti.,4,2,Male,TÜRKÇE,Chrome,Windows,768,1366,4.382716666666667,
904,condition1,fat,şişman,woman2_happy_fat,woman,[0.99],5400,25,,[],38,Yes,Deneydeki sorular daha netti.,4,2,Male,TÜRKÇE,Chrome,Windows,768,1366,4.382716666666667,
904,condition1,long,uzun,pencil_long_black,pencil,[0.73],4632,26,,[],38,Yes,Deneydeki sorular daha netti.,4,2,Male,TÜRKÇE,Chrome,Windows,768,1366,4.382716666666667,
904,condition1,glossy,parlak,nails_black_glossy,nails,[0.23],3869,27,,[],38,Yes,Deneydeki sorular daha netti.,4,2,Male,TÜRKÇE,Chrome,Windows,768,1366,4.382716666666667,
904,condition1,low,alçak,table_metal_low,table,[0.45],2827,28,,[],38,Yes,Deneydeki sorular daha netti.,4,2,Male,TÜRKÇE,Chrome,Windows,768,1366,4.382716666666667,
904,condition1,clean-shaven,sakalsız,man_old_cleanshaven,man,[0.68],3370,29,,[],38,Yes,Deneydeki sorular daha netti.,4,2,Male,TÜRKÇE,Chrome,Windows,768,1366,4.382716666666667,
904,condition1,blue,mavi,pencil_long_blue,pencil,[0.24],3391,30,,[],38,Yes,Deneydeki sorular daha netti.,4,2,Male,TÜRKÇE,Chrome,Windows,768,1366,4.382716666666667,
904,condition1,red,kırmızı,frog_spotted_red,frog,[0.59],3624,31,,[],38,Yes,Deneydeki sorular daha netti.,4,2,Male,TÜRKÇE,Chrome,Windows,768,1366,4.382716666666667,
904,condition1,black,siyah,nails_black_glossy,nails,[0.63],2742,32,,[],38,Yes,Deneydeki sorular daha netti.,4,2,Male,TÜRKÇE,Chrome,Windows,768,1366,4.382716666666667,
904,condition1,sad,mutsuz,woman_old_sad,woman,[1],3457,33,,[],38,Yes,Deneydeki sorular daha netti.,4,2,Male,TÜRKÇE,Chrome,Windows,768,1366,4.382716666666667,
904,condition1,cardboard,karton,box_closed_cardboard,box,[0.11],7706,34,,[],38,Yes,Deneydeki sorular daha netti.,4,2,Male,TÜRKÇE,Chrome,Windows,768,1366,4.382716666666667,
904,condition1,blond,sarı,hair_curly_blonde,hair,[0.17],2874,35,,[],38,Yes,Deneydeki sorular daha netti.,4,2,Male,TÜRKÇE,Chrome,Windows,768,1366,4.382716666666667,
904,condition1,high,yüksek,table_metal_high,table,[0.39],5017,36,,[],38,Yes,Deneydeki sorular daha netti.,4,2,Male,TÜRKÇE,Chrome,Windows,768,1366,4.382716666666667,
904,condition1,brown,kahverengi,hair_curly_brown,hair,[0.31],4683,37,,[],38,Yes,Deneydeki sorular daha netti.,4,2,Male,TÜRKÇE,Chrome,Windows,768,1366,4.382716666666667,
904,condition1,glasses-wearing,gözlüklü,man2_bearded_glassed,man,[0.7],3596,38,,[],38,Yes,Deneydeki sorular daha netti.,4,2,Male,TÜRKÇE,Chrome,Windows,768,1366,4.382716666666667,
904,condition1,dry,kuru,shorts_dry_green,shorts,[0.27],4586,39,,[],38,Yes,Deneydeki sorular daha netti.,4,2,Male,TÜRKÇE,Chrome,Windows,768,1366,4.382716666666667,
904,condition1,straight,düz,hair_straight_blond,hair,[0.81],3293,40,,[],38,Yes,Deneydeki sorular daha netti.,4,2,Male,TÜRKÇE,Chrome,Windows,768,1366,4.382716666666667,
904,condition1,happy,mutlu,woman_old_happy,woman,[0.98],3385,41,,[],38,Yes,Deneydeki sorular daha netti.,4,2,Male,TÜRKÇE,Chrome,Windows,768,1366,4.382716666666667,
904,condition1,spotted,benekli,frog_spotted_green,frog,[0.69],3148,42,,[],38,Yes,Deneydeki sorular daha netti.,4,2,Male,TÜRKÇE,Chrome,Windows,768,1366,4.382716666666667,
904,condition1,closed,kapalı,box_closed_cardboard,box,[0.11],3493,43,,[],38,Yes,Deneydeki sorular daha netti.,4,2,Male,TÜRKÇE,Chrome,Windows,768,1366,4.382716666666667,
904,condition1,curly,kıvırcık,hair_curly_blonde,hair,[0.7],3674,44,,[],38,Yes,Deneydeki sorular daha netti.,4,2,Male,TÜRKÇE,Chrome,Windows,768,1366,4.382716666666667,
904,condition1,open,açık,box_open_cardboard,box,[0.29],4409,45,,[],38,Yes,Deneydeki sorular daha netti.,4,2,Male,TÜRKÇE,Chrome,Windows,768,1366,4.382716666666667,
904,condition1,striped,çizgili,frog_striped_green,frog,[0.19],2793,46,,[],38,Yes,Deneydeki sorular daha netti.,4,2,Male,TÜRKÇE,Chrome,Windows,768,1366,4.382716666666667,
904,condition1,plastic,plastik,bottle_plastic_big,bottle,[0.19],2529,47,,[],38,Yes,Deneydeki sorular daha netti.,4,2,Male,TÜRKÇE,Chrome,Windows,768,1366,4.382716666666667,
904,condition1,metal,metal,spoon_metal_clean,spoon,[0.16],2626,48,,[],38,Yes,Deneydeki sorular daha netti.,4,2,Male,TÜRKÇE,Chrome,Windows,768,1366,4.382716666666667,
891,condition1,,,,beyaz,icecek,0,1,bot_check,[],36,Yes,,3,1,Female,turkce,Chrome,Windows,864,1536,4.067333333333333,
891,condition1,,,,beyaz,Yogurttan yapilan bir icecek,0,1,bot_check,[],36,Yes,,3,1,Female,turkce,Chrome,Windows,864,1536,4.067333333333333,
891,condition1,,,,beyaz,beyaz,0,1,bot_check,[],36,Yes,,3,1,Female,turkce,Chrome,Windows,864,1536,4.067333333333333,
891,condition1,sad,mutsuz,woman_old_sad,woman,[0.01],18251,3,,[],36,Yes,,3,1,Female,turkce,Chrome,Windows,864,1536,4.067333333333333,
891,condition1,bearded,sakallı,man_old_bearded,man,[0.01],8170,4,,[],36,Yes,,3,1,Female,turkce,Chrome,Windows,864,1536,4.067333333333333,
891,condition1,dirty,kirli,spoon_metal_dirty,spoon,[0.01],5651,5,,[],36,Yes,,3,1,Female,turkce,Chrome,Windows,864,1536,4.067333333333333,
891,condition1,cardboard,karton,box_closed_cardboard,box,[0.02],3271,6,,[],36,Yes,,3,1,Female,turkce,Chrome,Windows,864,1536,4.067333333333333,
891,condition1,glass,cam,bottle_glass_big,bottle,[0.01],2739,7,,[],36,Yes,,3,1,Female,turkce,Chrome,Windows,864,1536,4.067333333333333,
891,condition1,round,yuvarlak,earring_big_round,earring,[0.02],4171,8,,[],36,Yes,,3,1,Female,turkce,Chrome,Windows,864,1536,4.067333333333333,
891,condition1,green,yeşil,frog_spotted_green,frog,[0.97],4139,9,,[],36,Yes,,3,1,Female,turkce,Chrome,Windows,864,1536,4.067333333333333,
891,condition1,red,kırmızı,frog_spotted_red,frog,[1],4827,10,,[],36,Yes,,3,1,Female,turkce,Chrome,Windows,864,1536,4.067333333333333,
891,condition1,spotted,benekli,frog_spotted_green,frog,[0.02],3167,11,,[],36,Yes,,3,1,Female,turkce,Chrome,Windows,864,1536,4.067333333333333,
891,condition1,hat-wearing,şapkalı,man2_bearded_hatted,man,[0],5727,12,,[],36,Yes,,3,1,Female,turkce,Chrome,Windows,864,1536,4.067333333333333,
891,condition1,closed,kapalı,box_closed_cardboard,box,[0],5414,13,,[],36,Yes,,3,1,Female,turkce,Chrome,Windows,864,1536,4.067333333333333,
891,condition1,big,büyük,bottle_glass_big,bottle,[0.99],8422,14,,[],36,Yes,,3,1,Female,turkce,Chrome,Windows,864,1536,4.067333333333333,
891,condition1,brown,kahverengi,hair_curly_brown,hair,[0.98],2971,15,,[],36,Yes,,3,1,Female,turkce,Chrome,Windows,864,1536,4.067333333333333,
891,condition1,colored,renkli,picture_colored_rectangular,picture,[0.02],4923,16,,[],36,Yes,,3,1,Female,turkce,Chrome,Windows,864,1536,4.067333333333333,
891,condition1,clean-shaven,sakalsız,man_old_cleanshaven,man,[0.01],5631,17,,[],36,Yes,,3,1,Female,turkce,Chrome,Windows,864,1536,4.067333333333333,
891,condition1,fat,şişman,woman2_happy_fat,woman,[0.99],4454,18,,[],36,Yes,,3,1,Female,turkce,Chrome,Windows,864,1536,4.067333333333333,
891,condition1,blue,mavi,pencil_long_blue,pencil,[1],5371,19,,[],36,Yes,,3,1,Female,turkce,Chrome,Windows,864,1536,4.067333333333333,
891,condition1,happy,mutlu,woman_old_happy,woman,[0],7818,20,,[],36,Yes,,3,1,Female,turkce,Chrome,Windows,864,1536,4.067333333333333,
891,condition1,skinny,zayıf,woman2_happy_skinny,woman,[0.99],4075,21,,[],36,Yes,,3,1,Female,turkce,Chrome,Windows,864,1536,4.067333333333333,
891,condition1,plastic,plastik,bottle_plastic_big,bottle,[0.03],2591,22,,[],36,Yes,,3,1,Female,turkce,Chrome,Windows,864,1536,4.067333333333333,
891,condition1,glossy,parlak,nails_black_glossy,nails,[0.01],2696,23,,[],36,Yes,,3,1,Female,turkce,Chrome,Windows,864,1536,4.067333333333333,
891,condition1,wet,ıslak,shorts_wet_green,shorts,[0],3138,24,,[],36,Yes,,3,1,Female,turkce,Chrome,Windows,864,1536,4.067333333333333,
891,condition1,wooden,tahta,spoon_wooden_clean,spoon,[0.01],2968,25,,[],36,Yes,,3,1,Female,turkce,Chrome,Windows,864,1536,4.067333333333333,
891,condition1,young,genç,man_young_bearded,man,[0.02],3531,26,,[],36,Yes,,3,1,Female,turkce,Chrome,Windows,864,1536,4.067333333333333,
891,condition1,old,yaşlı,man_old_bearded,man,[0],2283,27,,[],36,Yes,,3,1,Female,turkce,Chrome,Windows,864,1536,4.067333333333333,
891,condition1,triangular,üçgen,earring_big_triangular,earring,[0.02],2724,28,,[],36,Yes,,3,1,Female,turkce,Chrome,Windows,864,1536,4.067333333333333,
891,condition1,rectangular,dikdörtgen,picture_bw_rectangular,picture,[0],2982,29,,[],36,Yes,,3,1,Female,turkce,Chrome,Windows,864,1536,4.067333333333333,
891,condition1,long,uzun,pencil_long_black,pencil,[0.02],5031,30,,[],36,Yes,,3,1,Female,turkce,Chrome,Windows,864,1536,4.067333333333333,
891,condition1,square,kare,picture_bw_square,picture,[0.02],2422,31,,[],36,Yes,,3,1,Female,turkce,Chrome,Windows,864,1536,4.067333333333333,
891,condition1,low,alçak,table_metal_low,table,[0.02],2697,32,,[],36,Yes,,3,1,Female,turkce,Chrome,Windows,864,1536,4.067333333333333,
891,condition1,black and white,siyah beyaz,picture_bw_rectangular,picture,[0],4118,33,,[],36,Yes,,3,1,Female,turkce,Chrome,Windows,864,1536,4.067333333333333,
891,condition1,clean,temiz,spoon_metal_clean,spoon,[0.01],4051,34,,[],36,Yes,,3,1,Female,turkce,Chrome,Windows,864,1536,4.067333333333333,
891,condition1,blond,sarı,hair_curly_blonde,hair,[0.99],4558,35,,[],36,Yes,,3,1,Female,turkce,Chrome,Windows,864,1536,4.067333333333333,
891,condition1,open,açık,box_open_cardboard,box,[0.02],3024,36,,[],36,Yes,,3,1,Female,turkce,Chrome,Windows,864,1536,4.067333333333333,
891,condition1,dry,kuru,shorts_dry_green,shorts,[0.02],4391,37,,[],36,Yes,,3,1,Female,turkce,Chrome,Windows,864,1536,4.067333333333333,
891,condition1,short,kısa,pencil_short_black,pencil,[0.02],3855,38,,[],36,Yes,,3,1,Female,turkce,Chrome,Windows,864,1536,4.067333333333333,
891,condition1,black,siyah,nails_black_glossy,nails,[0.01],4810,39,,[],36,Yes,,3,1,Female,turkce,Chrome,Windows,864,1536,4.067333333333333,
891,condition1,straight,düz,hair_straight_blond,hair,[0],2768,40,,[],36,Yes,,3,1,Female,turkce,Chrome,Windows,864,1536,4.067333333333333,
891,condition1,metal,metal,spoon_metal_clean,spoon,[0.02],2399,41,,[],36,Yes,,3,1,Female,turkce,Chrome,Windows,864,1536,4.067333333333333,
891,condition1,striped,çizgili,frog_striped_green,frog,[0.03],3199,42,,[],36,Yes,,3,1,Female,turkce,Chrome,Windows,864,1536,4.067333333333333,
891,condition1,mustache-touting,bıyıklı,man2_mustached_glassed,man,[0.01],2376,43,,[],36,Yes,,3,1,Female,turkce,Chrome,Windows,864,1536,4.067333333333333,
891,condition1,glasses-wearing,gözlüklü,man2_bearded_glassed,man,[0],2191,44,,[],36,Yes,,3,1,Female,turkce,Chrome,Windows,864,1536,4.067333333333333,
891,condition1,high,yüksek,table_metal_high,table,[0],3511,45,,[],36,Yes,,3,1,Female,turkce,Chrome,Windows,864,1536,4.067333333333333,
891,condition1,curly,kıvırcık,hair_curly_blonde,hair,[0.03],3679,46,,[],36,Yes,,3,1,Female,turkce,Chrome,Windows,864,1536,4.067333333333333,
891,condition1,small,küçük,bottle_glass_small,bottle,[0.01],3416,47,,[],36,Yes,,3,1,Female,turkce,Chrome,Windows,864,1536,4.067333333333333,
891,condition1,matte,mat,nails_black_matte,nails,[0.01],3256,48,,[],36,Yes,,3,1,Female,turkce,Chrome,Windows,864,1536,4.067333333333333,
914,condition1,,,,beyaz,beyaz,0,1,bot_check,[],30,Yes,,4,1,Male,Turkce,Chrome,Windows,1440,2560,4.197533333333333,
914,condition1,blond,sarı,hair_curly_blonde,hair,[1],51171,3,,[],30,Yes,,4,1,Male,Turkce,Chrome,Windows,1440,2560,4.197533333333333,
914,condition1,skinny,zayıf,woman2_happy_skinny,woman,[1],3720,4,,[],30,Yes,,4,1,Male,Turkce,Chrome,Windows,1440,2560,4.197533333333333,
914,condition1,blue,mavi,pencil_long_blue,pencil,[1],4012,5,,[],30,Yes,,4,1,Male,Turkce,Chrome,Windows,1440,2560,4.197533333333333,
914,condition1,mustache-touting,bıyıklı,man2_mustached_glassed,man,[0],4793,6,,[],30,Yes,,4,1,Male,Turkce,Chrome,Windows,1440,2560,4.197533333333333,
914,condition1,small,küçük,bottle_glass_small,bottle,[1],2790,7,,[],30,Yes,,4,1,Male,Turkce,Chrome,Windows,1440,2560,4.197533333333333,
914,condition1,striped,çizgili,frog_striped_green,frog,[0],4687,8,,[],30,Yes,,4,1,Male,Turkce,Chrome,Windows,1440,2560,4.197533333333333,
914,condition1,curly,kıvırcık,hair_curly_blonde,hair,[1],2738,9,,[],30,Yes,,4,1,Male,Turkce,Chrome,Windows,1440,2560,4.197533333333333,
914,condition1,triangular,üçgen,earring_big_triangular,earring,[0.02],3187,10,,[],30,Yes,,4,1,Male,Turkce,Chrome,Windows,1440,2560,4.197533333333333,
914,condition1,closed,kapalı,box_closed_cardboard,box,[0.51],3480,11,,[],30,Yes,,4,1,Male,Turkce,Chrome,Windows,1440,2560,4.197533333333333,
914,condition1,red,kırmızı,frog_spotted_red,frog,[0],2798,12,,[],30,Yes,,4,1,Male,Turkce,Chrome,Windows,1440,2560,4.197533333333333,
914,condition1,short,kısa,pencil_short_black,pencil,[1],2250,13,,[],30,Yes,,4,1,Male,Turkce,Chrome,Windows,1440,2560,4.197533333333333,
914,condition1,long,uzun,pencil_long_black,pencil,[1],1650,14,,[],30,Yes,,4,1,Male,Turkce,Chrome,Windows,1440,2560,4.197533333333333,
914,condition1,wet,ıslak,shorts_wet_green,shorts,[1],3862,15,,[],30,Yes,,4,1,Male,Turkce,Chrome,Windows,1440,2560,4.197533333333333,
914,condition1,matte,mat,nails_black_matte,nails,[1],2152,16,,[],30,Yes,,4,1,Male,Turkce,Chrome,Windows,1440,2560,4.197533333333333,
914,condition1,spotted,benekli,frog_spotted_green,frog,[0],3150,17,,[],30,Yes,,4,1,Male,Turkce,Chrome,Windows,1440,2560,4.197533333333333,
914,condition1,low,alçak,table_metal_low,table,[1],2858,18,,[],30,Yes,,4,1,Male,Turkce,Chrome,Windows,1440,2560,4.197533333333333,
914,condition1,glass,cam,bottle_glass_big,bottle,[0],4334,19,,[],30,Yes,,4,1,Male,Turkce,Chrome,Windows,1440,2560,4.197533333333333,
914,condition1,glossy,parlak,nails_black_glossy,nails,[1],3472,20,,[],30,Yes,,4,1,Male,Turkce,Chrome,Windows,1440,2560,4.197533333333333,
914,condition1,young,genç,man_young_bearded,man,[1],1988,21,,[],30,Yes,,4,1,Male,Turkce,Chrome,Windows,1440,2560,4.197533333333333,
914,condition1,dry,kuru,shorts_dry_green,shorts,[1],10192,22,,[],30,Yes,,4,1,Male,Turkce,Chrome,Windows,1440,2560,4.197533333333333,
914,condition1,dirty,kirli,spoon_metal_dirty,spoon,[1],3983,23,,[],30,Yes,,4,1,Male,Turkce,Chrome,Windows,1440,2560,4.197533333333333,
914,condition1,fat,şişman,woman2_happy_fat,woman,[1],3480,24,,[],30,Yes,,4,1,Male,Turkce,Chrome,Windows,1440,2560,4.197533333333333,
914,condition1,old,yaşlı,man_old_bearded,man,[1],1515,25,,[],30,Yes,,4,1,Male,Turkce,Chrome,Windows,1440,2560,4.197533333333333,
914,condition1,rectangular,dikdörtgen,picture_bw_rectangular,picture,[0],1852,26,,[],30,Yes,,4,1,Male,Turkce,Chrome,Windows,1440,2560,4.197533333333333,
914,condition1,round,yuvarlak,earring_big_round,earring,[0],4110,27,,[],30,Yes,,4,1,Male,Turkce,Chrome,Windows,1440,2560,4.197533333333333,
914,condition1,open,açık,box_open_cardboard,box,[0.02],4103,28,,[],30,Yes,,4,1,Male,Turkce,Chrome,Windows,1440,2560,4.197533333333333,
914,condition1,black,siyah,nails_black_glossy,nails,[0],2820,29,,[],30,Yes,,4,1,Male,Turkce,Chrome,Windows,1440,2560,4.197533333333333,
914,condition1,sad,mutsuz,woman_old_sad,woman,[1],5460,30,,[],30,Yes,,4,1,Male,Turkce,Chrome,Windows,1440,2560,4.197533333333333,
914,condition1,metal,metal,spoon_metal_clean,spoon,[0],1905,31,,[],30,Yes,,4,1,Male,Turkce,Chrome,Windows,1440,2560,4.197533333333333,
914,condition1,black and white,siyah beyaz,picture_bw_rectangular,picture,[0],3344,32,,[],30,Yes,,4,1,Male,Turkce,Chrome,Windows,1440,2560,4.197533333333333,
914,condition1,hat-wearing,şapkalı,man2_bearded_hatted,man,[0],3451,33,,[],30,Yes,,4,1,Male,Turkce,Chrome,Windows,1440,2560,4.197533333333333,
914,condition1,straight,düz,hair_straight_blond,hair,[1],5573,34,,[],30,Yes,,4,1,Male,Turkce,Chrome,Windows,1440,2560,4.197533333333333,
914,condition1,square,kare,picture_bw_square,picture,[0],1799,35,,[],30,Yes,,4,1,Male,Turkce,Chrome,Windows,1440,2560,4.197533333333333,
914,condition1,happy,mutlu,woman_old_happy,woman,[1],2160,36,,[],30,Yes,,4,1,Male,Turkce,Chrome,Windows,1440,2560,4.197533333333333,
914,condition1,high,yüksek,table_metal_high,table,[1],2122,37,,[],30,Yes,,4,1,Male,Turkce,Chrome,Windows,1440,2560,4.197533333333333,
914,condition1,plastic,plastik,bottle_plastic_big,bottle,[0],2040,38,,[],30,Yes,,4,1,Male,Turkce,Chrome,Windows,1440,2560,4.197533333333333,
914,condition1,bearded,sakallı,man_old_bearded,man,[0],4065,39,,[],30,Yes,,4,1,Male,Turkce,Chrome,Windows,1440,2560,4.197533333333333,
914,condition1,cardboard,karton,box_closed_cardboard,box,[0],3803,40,,[],30,Yes,,4,1,Male,Turkce,Chrome,Windows,1440,2560,4.197533333333333,
914,condition1,wooden,tahta,spoon_wooden_clean,spoon,[0],3157,41,,[],30,Yes,,4,1,Male,Turkce,Chrome,Windows,1440,2560,4.197533333333333,
914,condition1,brown,kahverengi,hair_curly_brown,hair,[0],3833,42,,[],30,Yes,,4,1,Male,Turkce,Chrome,Windows,1440,2560,4.197533333333333,
914,condition1,clean-shaven,sakalsız,man_old_cleanshaven,man,[0],2242,43,,[],30,Yes,,4,1,Male,Turkce,Chrome,Windows,1440,2560,4.197533333333333,
914,condition1,green,yeşil,frog_spotted_green,frog,[0],2168,44,,[],30,Yes,,4,1,Male,Turkce,Chrome,Windows,1440,2560,4.197533333333333,
914,condition1,colored,renkli,picture_colored_rectangular,picture,[0],9329,45,,[],30,Yes,,4,1,Male,Turkce,Chrome,Windows,1440,2560,4.197533333333333,
914,condition1,big,büyük,bottle_glass_big,bottle,[1],4635,46,,[],30,Yes,,4,1,Male,Turkce,Chrome,Windows,1440,2560,4.197533333333333,
914,condition1,glasses-wearing,gözlüklü,man2_bearded_glassed,man,[0],4792,47,,[],30,Yes,,4,1,Male,Turkce,Chrome,Windows,1440,2560,4.197533333333333,
914,condition1,clean,temiz,spoon_metal_clean,spoon,[1],8243,48,,[],30,Yes,,4,1,Male,Turkce,Chrome,Windows,1440,2560,4.197533333333333,
938,condition1,,,,beyaz,beyaz,0,1,bot_check,[],34,Yes,factual and perceptional kavraamlar kafami karistirdi renk korlugunu hesaba kattim bu yuzden,4,1,Female,Turkce,Chrome,Windows,864,1536,5.521483333333333,
938,condition1,curly,kıvırcık,hair_curly_blonde,hair,[0.97],16081,3,,[],34,Yes,factual and perceptional kavraamlar kafami karistirdi renk korlugunu hesaba kattim bu yuzden,4,1,Female,Turkce,Chrome,Windows,864,1536,5.521483333333333,
938,condition1,plastic,plastik,bottle_plastic_big,bottle,[0.01],9847,4,,[],34,Yes,factual and perceptional kavraamlar kafami karistirdi renk korlugunu hesaba kattim bu yuzden,4,1,Female,Turkce,Chrome,Windows,864,1536,5.521483333333333,
938,condition1,spotted,benekli,frog_spotted_green,frog,[0.36],7849,5,,[],34,Yes,factual and perceptional kavraamlar kafami karistirdi renk korlugunu hesaba kattim bu yuzden,4,1,Female,Turkce,Chrome,Windows,864,1536,5.521483333333333,
938,condition1,clean-shaven,sakalsız,man_old_cleanshaven,man,[0.27],13396,6,,[],34,Yes,factual and perceptional kavraamlar kafami karistirdi renk korlugunu hesaba kattim bu yuzden,4,1,Female,Turkce,Chrome,Windows,864,1536,5.521483333333333,
938,condition1,closed,kapalı,box_closed_cardboard,box,[0.16],7585,7,,[],34,Yes,factual and perceptional kavraamlar kafami karistirdi renk korlugunu hesaba kattim bu yuzden,4,1,Female,Turkce,Chrome,Windows,864,1536,5.521483333333333,
938,condition1,big,büyük,bottle_glass_big,bottle,[0.99],7177,8,,[],34,Yes,factual and perceptional kavraamlar kafami karistirdi renk korlugunu hesaba kattim bu yuzden,4,1,Female,Turkce,Chrome,Windows,864,1536,5.521483333333333,
938,condition1,mustache-touting,bıyıklı,man2_mustached_glassed,man,[0.23],4326,9,,[],34,Yes,factual and perceptional kavraamlar kafami karistirdi renk korlugunu hesaba kattim bu yuzden,4,1,Female,Turkce,Chrome,Windows,864,1536,5.521483333333333,
938,condition1,brown,kahverengi,hair_curly_brown,hair,[0.47],6418,10,,[],34,Yes,factual and perceptional kavraamlar kafami karistirdi renk korlugunu hesaba kattim bu yuzden,4,1,Female,Turkce,Chrome,Windows,864,1536,5.521483333333333,
938,condition1,happy,mutlu,woman_old_happy,woman,[0.35],6820,11,,[],34,Yes,factual and perceptional kavraamlar kafami karistirdi renk korlugunu hesaba kattim bu yuzden,4,1,Female,Turkce,Chrome,Windows,864,1536,5.521483333333333,
938,condition1,sad,mutsuz,woman_old_sad,woman,[0.37],3585,12,,[],34,Yes,factual and perceptional kavraamlar kafami karistirdi renk korlugunu hesaba kattim bu yuzden,4,1,Female,Turkce,Chrome,Windows,864,1536,5.521483333333333,
938,condition1,black,siyah,nails_black_glossy,nails,[0.29],5487,13,,[],34,Yes,factual and perceptional kavraamlar kafami karistirdi renk korlugunu hesaba kattim bu yuzden,4,1,Female,Turkce,Chrome,Windows,864,1536,5.521483333333333,
938,condition1,straight,düz,hair_straight_blond,hair,[0.85],4048,14,,[],34,Yes,factual and perceptional kavraamlar kafami karistirdi renk korlugunu hesaba kattim bu yuzden,4,1,Female,Turkce,Chrome,Windows,864,1536,5.521483333333333,
938,condition1,open,açık,box_open_cardboard,box,[0.03],5428,15,,[],34,Yes,factual and perceptional kavraamlar kafami karistirdi renk korlugunu hesaba kattim bu yuzden,4,1,Female,Turkce,Chrome,Windows,864,1536,5.521483333333333,
938,condition1,dry,kuru,shorts_dry_green,shorts,[0.02],4724,16,,[],34,Yes,factual and perceptional kavraamlar kafami karistirdi renk korlugunu hesaba kattim bu yuzden,4,1,Female,Turkce,Chrome,Windows,864,1536,5.521483333333333,
938,condition1,long,uzun,pencil_long_black,pencil,[1],4112,17,,[],34,Yes,factual and perceptional kavraamlar kafami karistirdi renk korlugunu hesaba kattim bu yuzden,4,1,Female,Turkce,Chrome,Windows,864,1536,5.521483333333333,
938,condition1,glasses-wearing,gözlüklü,man2_bearded_glassed,man,[0.04],3068,18,,[],34,Yes,factual and perceptional kavraamlar kafami karistirdi renk korlugunu hesaba kattim bu yuzden,4,1,Female,Turkce,Chrome,Windows,864,1536,5.521483333333333,
938,condition1,young,genç,man_young_bearded,man,[0.78],3076,19,,[],34,Yes,factual and perceptional kavraamlar kafami karistirdi renk korlugunu hesaba kattim bu yuzden,4,1,Female,Turkce,Chrome,Windows,864,1536,5.521483333333333,
938,condition1,green,yeşil,frog_spotted_green,frog,[0.28],2720,20,,[],34,Yes,factual and perceptional kavraamlar kafami karistirdi renk korlugunu hesaba kattim bu yuzden,4,1,Female,Turkce,Chrome,Windows,864,1536,5.521483333333333,
938,condition1,glossy,parlak,nails_black_glossy,nails,[0.8],3170,21,,[],34,Yes,factual and perceptional kavraamlar kafami karistirdi renk korlugunu hesaba kattim bu yuzden,4,1,Female,Turkce,Chrome,Windows,864,1536,5.521483333333333,
938,condition1,glass,cam,bottle_glass_big,bottle,[0.01],2915,22,,[],34,Yes,factual and perceptional kavraamlar kafami karistirdi renk korlugunu hesaba kattim bu yuzden,4,1,Female,Turkce,Chrome,Windows,864,1536,5.521483333333333,
938,condition1,dirty,kirli,spoon_metal_dirty,spoon,[0.46],8021,23,,[],34,Yes,factual and perceptional kavraamlar kafami karistirdi renk korlugunu hesaba kattim bu yuzden,4,1,Female,Turkce,Chrome,Windows,864,1536,5.521483333333333,
938,condition1,blue,mavi,pencil_long_blue,pencil,[0.65],5024,24,,[],34,Yes,factual and perceptional kavraamlar kafami karistirdi renk korlugunu hesaba kattim bu yuzden,4,1,Female,Turkce,Chrome,Windows,864,1536,5.521483333333333,
938,condition1,short,kısa,pencil_short_black,pencil,[0.78],3714,25,,[],34,Yes,factual and perceptional kavraamlar kafami karistirdi renk korlugunu hesaba kattim bu yuzden,4,1,Female,Turkce,Chrome,Windows,864,1536,5.521483333333333,
938,condition1,small,küçük,bottle_glass_small,bottle,[0.74],2482,26,,[],34,Yes,factual and perceptional kavraamlar kafami karistirdi renk korlugunu hesaba kattim bu yuzden,4,1,Female,Turkce,Chrome,Windows,864,1536,5.521483333333333,
938,condition1,high,yüksek,table_metal_high,table,[0.7],2089,27,,[],34,Yes,factual and perceptional kavraamlar kafami karistirdi renk korlugunu hesaba kattim bu yuzden,4,1,Female,Turkce,Chrome,Windows,864,1536,5.521483333333333,
938,condition1,old,yaşlı,man_old_bearded,man,[0.39],2148,28,,[],34,Yes,factual and perceptional kavraamlar kafami karistirdi renk korlugunu hesaba kattim bu yuzden,4,1,Female,Turkce,Chrome,Windows,864,1536,5.521483333333333,
938,condition1,black and white,siyah beyaz,picture_bw_rectangular,picture,[0.88],9136,29,,[],34,Yes,factual and perceptional kavraamlar kafami karistirdi renk korlugunu hesaba kattim bu yuzden,4,1,Female,Turkce,Chrome,Windows,864,1536,5.521483333333333,
938,condition1,skinny,zayıf,woman2_happy_skinny,woman,[0.84],4717,30,,[],34,Yes,factual and perceptional kavraamlar kafami karistirdi renk korlugunu hesaba kattim bu yuzden,4,1,Female,Turkce,Chrome,Windows,864,1536,5.521483333333333,
938,condition1,rectangular,dikdörtgen,picture_bw_rectangular,picture,[0.02],3371,31,,[],34,Yes,factual and perceptional kavraamlar kafami karistirdi renk korlugunu hesaba kattim bu yuzden,4,1,Female,Turkce,Chrome,Windows,864,1536,5.521483333333333,
938,condition1,wet,ıslak,shorts_wet_green,shorts,[0.05],3603,32,,[],34,Yes,factual and perceptional kavraamlar kafami karistirdi renk korlugunu hesaba kattim bu yuzden,4,1,Female,Turkce,Chrome,Windows,864,1536,5.521483333333333,
938,condition1,square,kare,picture_bw_square,picture,[0.03],3540,33,,[],34,Yes,factual and perceptional kavraamlar kafami karistirdi renk korlugunu hesaba kattim bu yuzden,4,1,Female,Turkce,Chrome,Windows,864,1536,5.521483333333333,
938,condition1,metal,metal,spoon_metal_clean,spoon,[0],8868,34,,[],34,Yes,factual and perceptional kavraamlar kafami karistirdi renk korlugunu hesaba kattim bu yuzden,4,1,Female,Turkce,Chrome,Windows,864,1536,5.521483333333333,
938,condition1,red,kırmızı,frog_spotted_red,frog,[0.49],2600,35,,[],34,Yes,factual and perceptional kavraamlar kafami karistirdi renk korlugunu hesaba kattim bu yuzden,4,1,Female,Turkce,Chrome,Windows,864,1536,5.521483333333333,
938,condition1,clean,temiz,spoon_metal_clean,spoon,[0.51],2362,36,,[],34,Yes,factual and perceptional kavraamlar kafami karistirdi renk korlugunu hesaba kattim bu yuzden,4,1,Female,Turkce,Chrome,Windows,864,1536,5.521483333333333,
938,condition1,cardboard,karton,box_closed_cardboard,box,[0.01],2980,37,,[],34,Yes,factual and perceptional kavraamlar kafami karistirdi renk korlugunu hesaba kattim bu yuzden,4,1,Female,Turkce,Chrome,Windows,864,1536,5.521483333333333,
938,condition1,wooden,tahta,spoon_wooden_clean,spoon,[0.02],3554,38,,[],34,Yes,factual and perceptional kavraamlar kafami karistirdi renk korlugunu hesaba kattim bu yuzden,4,1,Female,Turkce,Chrome,Windows,864,1536,5.521483333333333,
938,condition1,low,alçak,table_metal_low,table,[0.68],2734,39,,[],34,Yes,factual and perceptional kavraamlar kafami karistirdi renk korlugunu hesaba kattim bu yuzden,4,1,Female,Turkce,Chrome,Windows,864,1536,5.521483333333333,
938,condition1,blond,sarı,hair_curly_blonde,hair,[0.58],3483,40,,[],34,Yes,factual and perceptional kavraamlar kafami karistirdi renk korlugunu hesaba kattim bu yuzden,4,1,Female,Turkce,Chrome,Windows,864,1536,5.521483333333333,
938,condition1,matte,mat,nails_black_matte,nails,[0.61],2317,41,,[],34,Yes,factual and perceptional kavraamlar kafami karistirdi renk korlugunu hesaba kattim bu yuzden,4,1,Female,Turkce,Chrome,Windows,864,1536,5.521483333333333,
938,condition1,bearded,sakallı,man_old_bearded,man,[0.57],2479,42,,[],34,Yes,factual and perceptional kavraamlar kafami karistirdi renk korlugunu hesaba kattim bu yuzden,4,1,Female,Turkce,Chrome,Windows,864,1536,5.521483333333333,
938,condition1,colored,renkli,picture_colored_rectangular,picture,[0.3],3427,43,,[],34,Yes,factual and perceptional kavraamlar kafami karistirdi renk korlugunu hesaba kattim bu yuzden,4,1,Female,Turkce,Chrome,Windows,864,1536,5.521483333333333,
938,condition1,fat,şişman,woman2_happy_fat,woman,[0.65],3867,44,,[],34,Yes,factual and perceptional kavraamlar kafami karistirdi renk korlugunu hesaba kattim bu yuzden,4,1,Female,Turkce,Chrome,Windows,864,1536,5.521483333333333,
938,condition1,hat-wearing,şapkalı,man2_bearded_hatted,man,[0.01],3162,45,,[],34,Yes,factual and perceptional kavraamlar kafami karistirdi renk korlugunu hesaba kattim bu yuzden,4,1,Female,Turkce,Chrome,Windows,864,1536,5.521483333333333,
938,condition1,round,yuvarlak,earring_big_round,earring,[0],5512,46,,[],34,Yes,factual and perceptional kavraamlar kafami karistirdi renk korlugunu hesaba kattim bu yuzden,4,1,Female,Turkce,Chrome,Windows,864,1536,5.521483333333333,
938,condition1,triangular,üçgen,earring_big_triangular,earring,[0.01],2534,47,,[],34,Yes,factual and perceptional kavraamlar kafami karistirdi renk korlugunu hesaba kattim bu yuzden,4,1,Female,Turkce,Chrome,Windows,864,1536,5.521483333333333,
938,condition1,striped,çizgili,frog_striped_green,frog,[0],3014,48,,[],34,Yes,factual and perceptional kavraamlar kafami karistirdi renk korlugunu hesaba kattim bu yuzden,4,1,Female,Turkce,Chrome,Windows,864,1536,5.521483333333333,
889,condition1,,,,beyaz,beyaz,0,1,bot_check,[],26,Yes,,4,1,Male,Turkce,Chrome,Windows,1235,1852,6.202216666666667,
889,condition1,spotted,benekli,frog_spotted_green,frog,[0],13899,3,,[],26,Yes,,4,1,Male,Turkce,Chrome,Windows,1235,1852,6.202216666666667,
889,condition1,round,yuvarlak,earring_big_round,earring,[0],8682,4,,[],26,Yes,,4,1,Male,Turkce,Chrome,Windows,1235,1852,6.202216666666667,
889,condition1,clean-shaven,sakalsız,man_old_cleanshaven,man,[0],25816,5,,[],26,Yes,,4,1,Male,Turkce,Chrome,Windows,1235,1852,6.202216666666667,
889,condition1,closed,kapalı,box_closed_cardboard,box,[0],11468,6,,[],26,Yes,,4,1,Male,Turkce,Chrome,Windows,1235,1852,6.202216666666667,
889,condition1,happy,mutlu,woman_old_happy,woman,[1],6644,7,,[],26,Yes,,4,1,Male,Turkce,Chrome,Windows,1235,1852,6.202216666666667,
889,condition1,small,küçük,bottle_glass_small,bottle,[1],4877,8,,[],26,Yes,,4,1,Male,Turkce,Chrome,Windows,1235,1852,6.202216666666667,
889,condition1,straight,düz,hair_straight_blond,hair,[0],4435,9,,[],26,Yes,,4,1,Male,Turkce,Chrome,Windows,1235,1852,6.202216666666667,
889,condition1,glasses-wearing,gözlüklü,man2_bearded_glassed,man,[0],7803,10,,[],26,Yes,,4,1,Male,Turkce,Chrome,Windows,1235,1852,6.202216666666667,
889,condition1,short,kısa,pencil_short_black,pencil,[1],3877,11,,[],26,Yes,,4,1,Male,Turkce,Chrome,Windows,1235,1852,6.202216666666667,
889,condition1,cardboard,karton,box_closed_cardboard,box,[0],4971,12,,[],26,Yes,,4,1,Male,Turkce,Chrome,Windows,1235,1852,6.202216666666667,
889,condition1,hat-wearing,şapkalı,man2_bearded_hatted,man,[0],5730,13,,[],26,Yes,,4,1,Male,Turkce,Chrome,Windows,1235,1852,6.202216666666667,
889,condition1,young,genç,man_young_bearded,man,[1],3557,14,,[],26,Yes,,4,1,Male,Turkce,Chrome,Windows,1235,1852,6.202216666666667,
889,condition1,square,kare,picture_bw_square,picture,[0],3833,15,,[],26,Yes,,4,1,Male,Turkce,Chrome,Windows,1235,1852,6.202216666666667,
889,condition1,old,yaşlı,man_old_bearded,man,[1],3682,16,,[],26,Yes,,4,1,Male,Turkce,Chrome,Windows,1235,1852,6.202216666666667,
889,condition1,dirty,kirli,spoon_metal_dirty,spoon,[0.27],7567,17,,[],26,Yes,,4,1,Male,Turkce,Chrome,Windows,1235,1852,6.202216666666667,
889,condition1,metal,metal,spoon_metal_clean,spoon,[0],3211,18,,[],26,Yes,,4,1,Male,Turkce,Chrome,Windows,1235,1852,6.202216666666667,
889,condition1,high,yüksek,table_metal_high,table,[1],3778,19,,[],26,Yes,,4,1,Male,Turkce,Chrome,Windows,1235,1852,6.202216666666667,
889,condition1,dry,kuru,shorts_dry_green,shorts,[0],3766,20,,[],26,Yes,,4,1,Male,Turkce,Chrome,Windows,1235,1852,6.202216666666667,
889,condition1,matte,mat,nails_black_matte,nails,[0.17],4117,21,,[],26,Yes,,4,1,Male,Turkce,Chrome,Windows,1235,1852,6.202216666666667,
889,condition1,triangular,üçgen,earring_big_triangular,earring,[0],3487,22,,[],26,Yes,,4,1,Male,Turkce,Chrome,Windows,1235,1852,6.202216666666667,
889,condition1,big,büyük,bottle_glass_big,bottle,[1],3818,23,,[],26,Yes,,4,1,Male,Turkce,Chrome,Windows,1235,1852,6.202216666666667,
889,condition1,glass,cam,bottle_glass_big,bottle,[0],3036,24,,[],26,Yes,,4,1,Male,Turkce,Chrome,Windows,1235,1852,6.202216666666667,
889,condition1,curly,kıvırcık,hair_curly_blonde,hair,[0.16],10756,25,,[],26,Yes,,4,1,Male,Turkce,Chrome,Windows,1235,1852,6.202216666666667,
889,condition1,colored,renkli,picture_colored_rectangular,picture,[0],5559,26,,[],26,Yes,,4,1,Male,Turkce,Chrome,Windows,1235,1852,6.202216666666667,
889,condition1,bearded,sakallı,man_old_bearded,man,[0.29],5016,27,,[],26,Yes,,4,1,Male,Turkce,Chrome,Windows,1235,1852,6.202216666666667,
889,condition1,rectangular,dikdörtgen,picture_bw_rectangular,picture,[0],18300,28,,[],26,Yes,,4,1,Male,Turkce,Chrome,Windows,1235,1852,6.202216666666667,
889,condition1,open,açık,box_open_cardboard,box,[0],2971,29,,[],26,Yes,,4,1,Male,Turkce,Chrome,Windows,1235,1852,6.202216666666667,
889,condition1,clean,temiz,spoon_metal_clean,spoon,[0.21],3027,30,,[],26,Yes,,4,1,Male,Turkce,Chrome,Windows,1235,1852,6.202216666666667,
889,condition1,mustache-touting,bıyıklı,man2_mustached_glassed,man,[0],2498,31,,[],26,Yes,,4,1,Male,Turkce,Chrome,Windows,1235,1852,6.202216666666667,
889,condition1,green,yeşil,frog_spotted_green,frog,[0.18],6821,32,,[],26,Yes,,4,1,Male,Turkce,Chrome,Windows,1235,1852,6.202216666666667,
889,condition1,wooden,tahta,spoon_wooden_clean,spoon,[0],5621,33,,[],26,Yes,,4,1,Male,Turkce,Chrome,Windows,1235,1852,6.202216666666667,
889,condition1,low,alçak,table_metal_low,table,[1],9277,34,,[],26,Yes,,4,1,Male,Turkce,Chrome,Windows,1235,1852,6.202216666666667,
889,condition1,black,siyah,nails_black_glossy,nails,[0.08],4839,35,,[],26,Yes,,4,1,Male,Turkce,Chrome,Windows,1235,1852,6.202216666666667,
889,condition1,striped,çizgili,frog_striped_green,frog,[0],4725,36,,[],26,Yes,,4,1,Male,Turkce,Chrome,Windows,1235,1852,6.202216666666667,
889,condition1,fat,şişman,woman2_happy_fat,woman,[1],3727,37,,[],26,Yes,,4,1,Male,Turkce,Chrome,Windows,1235,1852,6.202216666666667,
889,condition1,blue,mavi,pencil_long_blue,pencil,[0.11],2790,38,,[],26,Yes,,4,1,Male,Turkce,Chrome,Windows,1235,1852,6.202216666666667,
889,condition1,black and white,siyah beyaz,picture_bw_rectangular,picture,[0],5063,39,,[],26,Yes,,4,1,Male,Turkce,Chrome,Windows,1235,1852,6.202216666666667,
889,condition1,brown,kahverengi,hair_curly_brown,hair,[0.17],4118,40,,[],26,Yes,,4,1,Male,Turkce,Chrome,Windows,1235,1852,6.202216666666667,
889,condition1,wet,ıslak,shorts_wet_green,shorts,[0],16223,41,,[],26,Yes,,4,1,Male,Turkce,Chrome,Windows,1235,1852,6.202216666666667,
889,condition1,blond,sarı,hair_curly_blonde,hair,[0.12],3067,42,,[],26,Yes,,4,1,Male,Turkce,Chrome,Windows,1235,1852,6.202216666666667,
889,condition1,red,kırmızı,frog_spotted_red,frog,[0.09],21120,43,,[],26,Yes,,4,1,Male,Turkce,Chrome,Windows,1235,1852,6.202216666666667,
889,condition1,skinny,zayıf,woman2_happy_skinny,woman,[1],4770,44,,[],26,Yes,,4,1,Male,Turkce,Chrome,Windows,1235,1852,6.202216666666667,
889,condition1,long,uzun,pencil_long_black,pencil,[1],3150,45,,[],26,Yes,,4,1,Male,Turkce,Chrome,Windows,1235,1852,6.202216666666667,
889,condition1,glossy,parlak,nails_black_glossy,nails,[1],4050,46,,[],26,Yes,,4,1,Male,Turkce,Chrome,Windows,1235,1852,6.202216666666667,
889,condition1,sad,mutsuz,woman_old_sad,woman,[1],26548,47,,[],26,Yes,,4,1,Male,Turkce,Chrome,Windows,1235,1852,6.202216666666667,
889,condition1,plastic,plastik,bottle_plastic_big,bottle,[0],3023,48,,[],26,Yes,,4,1,Male,Turkce,Chrome,Windows,1235,1852,6.202216666666667,
917,condition1,,,,beyaz,beyaz,0,1,bot_check,[],33,Yes,,4,2,Female,Turkce,Chrome,Mac,900,1440,3.99935,
917,condition1,blue,mavi,pencil_long_blue,pencil,[0],9712,3,,[],33,Yes,,4,2,Female,Turkce,Chrome,Mac,900,1440,3.99935,
917,condition1,red,kırmızı,frog_spotted_red,frog,[0.01],3464,4,,[],33,Yes,,4,2,Female,Turkce,Chrome,Mac,900,1440,3.99935,
917,condition1,rectangular,dikdörtgen,picture_bw_rectangular,picture,[0.01],4985,5,,[],33,Yes,,4,2,Female,Turkce,Chrome,Mac,900,1440,3.99935,
917,condition1,closed,kapalı,box_closed_cardboard,box,[0],3609,6,,[],33,Yes,,4,2,Female,Turkce,Chrome,Mac,900,1440,3.99935,
917,condition1,big,büyük,bottle_glass_big,bottle,[0.98],3592,7,,[],33,Yes,,4,2,Female,Turkce,Chrome,Mac,900,1440,3.99935,
917,condition1,short,kısa,pencil_short_black,pencil,[0.98],2587,8,,[],33,Yes,,4,2,Female,Turkce,Chrome,Mac,900,1440,3.99935,
917,condition1,green,yeşil,frog_spotted_green,frog,[0],3232,9,,[],33,Yes,,4,2,Female,Turkce,Chrome,Mac,900,1440,3.99935,
917,condition1,striped,çizgili,frog_striped_green,frog,[0],3664,10,,[],33,Yes,,4,2,Female,Turkce,Chrome,Mac,900,1440,3.99935,
917,condition1,colored,renkli,picture_colored_rectangular,picture,[0.01],5822,11,,[],33,Yes,,4,2,Female,Turkce,Chrome,Mac,900,1440,3.99935,
917,condition1,round,yuvarlak,earring_big_round,earring,[0],4569,12,,[],33,Yes,,4,2,Female,Turkce,Chrome,Mac,900,1440,3.99935,
917,condition1,spotted,benekli,frog_spotted_green,frog,[0.02],2895,13,,[],33,Yes,,4,2,Female,Turkce,Chrome,Mac,900,1440,3.99935,
917,condition1,glasses-wearing,gözlüklü,man2_bearded_glassed,man,[0],2387,14,,[],33,Yes,,4,2,Female,Turkce,Chrome,Mac,900,1440,3.99935,
917,condition1,metal,metal,spoon_metal_clean,spoon,[0.46],8920,15,,[],33,Yes,,4,2,Female,Turkce,Chrome,Mac,900,1440,3.99935,
917,condition1,brown,kahverengi,hair_curly_brown,hair,[0.01],4505,16,,[],33,Yes,,4,2,Female,Turkce,Chrome,Mac,900,1440,3.99935,
917,condition1,fat,şişman,woman2_happy_fat,woman,[0.99],2783,17,,[],33,Yes,,4,2,Female,Turkce,Chrome,Mac,900,1440,3.99935,
917,condition1,matte,mat,nails_black_matte,nails,[0.01],2638,18,,[],33,Yes,,4,2,Female,Turkce,Chrome,Mac,900,1440,3.99935,
917,condition1,clean,temiz,spoon_metal_clean,spoon,[0.98],2835,19,,[],33,Yes,,4,2,Female,Turkce,Chrome,Mac,900,1440,3.99935,
917,condition1,old,yaşlı,man_old_bearded,man,[0.98],4232,20,,[],33,Yes,,4,2,Female,Turkce,Chrome,Mac,900,1440,3.99935,
917,condition1,mustache-touting,bıyıklı,man2_mustached_glassed,man,[0.03],2824,21,,[],33,Yes,,4,2,Female,Turkce,Chrome,Mac,900,1440,3.99935,
917,condition1,sad,mutsuz,woman_old_sad,woman,[0.99],2678,22,,[],33,Yes,,4,2,Female,Turkce,Chrome,Mac,900,1440,3.99935,
917,condition1,triangular,üçgen,earring_big_triangular,earring,[0],2074,23,,[],33,Yes,,4,2,Female,Turkce,Chrome,Mac,900,1440,3.99935,
917,condition1,clean-shaven,sakalsız,man_old_cleanshaven,man,[0.01],2864,24,,[],33,Yes,,4,2,Female,Turkce,Chrome,Mac,900,1440,3.99935,
917,condition1,blond,sarı,hair_curly_blonde,hair,[0.01],1898,25,,[],33,Yes,,4,2,Female,Turkce,Chrome,Mac,900,1440,3.99935,
917,condition1,square,kare,picture_bw_square,picture,[0.02],2358,26,,[],33,Yes,,4,2,Female,Turkce,Chrome,Mac,900,1440,3.99935,
917,condition1,skinny,zayıf,woman2_happy_skinny,woman,[0.99],3383,27,,[],33,Yes,,4,2,Female,Turkce,Chrome,Mac,900,1440,3.99935,
917,condition1,bearded,sakallı,man_old_bearded,man,[0.01],1874,28,,[],33,Yes,,4,2,Female,Turkce,Chrome,Mac,900,1440,3.99935,
917,condition1,high,yüksek,table_metal_high,table,[0.97],2927,29,,[],33,Yes,,4,2,Female,Turkce,Chrome,Mac,900,1440,3.99935,
917,condition1,black,siyah,nails_black_glossy,nails,[0.01],1754,30,,[],33,Yes,,4,2,Female,Turkce,Chrome,Mac,900,1440,3.99935,
917,condition1,young,genç,man_young_bearded,man,[1],1998,31,,[],33,Yes,,4,2,Female,Turkce,Chrome,Mac,900,1440,3.99935,
917,condition1,hat-wearing,şapkalı,man2_bearded_hatted,man,[0],2065,32,,[],33,Yes,,4,2,Female,Turkce,Chrome,Mac,900,1440,3.99935,
917,condition1,glass,cam,bottle_glass_big,bottle,[0],3231,33,,[],33,Yes,,4,2,Female,Turkce,Chrome,Mac,900,1440,3.99935,
917,condition1,glossy,parlak,nails_black_glossy,nails,[0.01],2967,34,,[],33,Yes,,4,2,Female,Turkce,Chrome,Mac,900,1440,3.99935,
917,condition1,wet,ıslak,shorts_wet_green,shorts,[0.01],6571,35,,[],33,Yes,,4,2,Female,Turkce,Chrome,Mac,900,1440,3.99935,
917,condition1,open,açık,box_open_cardboard,box,[0.01],1814,36,,[],33,Yes,,4,2,Female,Turkce,Chrome,Mac,900,1440,3.99935,
917,condition1,happy,mutlu,woman_old_happy,woman,[0.98],2178,37,,[],33,Yes,,4,2,Female,Turkce,Chrome,Mac,900,1440,3.99935,
917,condition1,cardboard,karton,box_closed_cardboard,box,[0],3792,38,,[],33,Yes,,4,2,Female,Turkce,Chrome,Mac,900,1440,3.99935,
917,condition1,small,küçük,bottle_glass_small,bottle,[0.97],2374,39,,[],33,Yes,,4,2,Female,Turkce,Chrome,Mac,900,1440,3.99935,
917,condition1,dry,kuru,shorts_dry_green,shorts,[0.01],3123,40,,[],33,Yes,,4,2,Female,Turkce,Chrome,Mac,900,1440,3.99935,
917,condition1,curly,kıvırcık,hair_curly_blonde,hair,[0],2111,41,,[],33,Yes,,4,2,Female,Turkce,Chrome,Mac,900,1440,3.99935,
917,condition1,black and white,siyah beyaz,picture_bw_rectangular,picture,[0],5009,42,,[],33,Yes,,4,2,Female,Turkce,Chrome,Mac,900,1440,3.99935,
917,condition1,dirty,kirli,spoon_metal_dirty,spoon,[0.98],2711,43,,[],33,Yes,,4,2,Female,Turkce,Chrome,Mac,900,1440,3.99935,
917,condition1,plastic,plastik,bottle_plastic_big,bottle,[0],4433,44,,[],33,Yes,,4,2,Female,Turkce,Chrome,Mac,900,1440,3.99935,
917,condition1,wooden,tahta,spoon_wooden_clean,spoon,[0.01],2203,45,,[],33,Yes,,4,2,Female,Turkce,Chrome,Mac,900,1440,3.99935,
917,condition1,low,alçak,table_metal_low,table,[0.99],2502,46,,[],33,Yes,,4,2,Female,Turkce,Chrome,Mac,900,1440,3.99935,
917,condition1,long,uzun,pencil_long_black,pencil,[1],3584,47,,[],33,Yes,,4,2,Female,Turkce,Chrome,Mac,900,1440,3.99935,
917,condition1,straight,düz,hair_straight_blond,hair,[0],3016,48,,[],33,Yes,,4,2,Female,Turkce,Chrome,Mac,900,1440,3.99935,
