workerid,proliferate.condition,adj,adj_tr,label,object,response,rt,slide_number_in_experiment,trial_type,error
903,condition1,,,,beyaz,Beyaz,0,1,bot_check,
903,condition1,black and white,siyah beyaz,picture_bw_rectangular,picture,[0],18214,3,,
903,condition1,plastic,plastik,bottle_plastic_big,bottle,[0.78],10927,4,,
903,condition1,green,yeşil,frog_spotted_green,frog,[0.66],3901,5,,
903,condition1,dry,kuru,shorts_dry_green,shorts,[0.8],5144,6,,
903,condition1,short,kısa,pencil_short_black,pencil,[1],3418,7,,
903,condition1,glasses-wearing,gözlüklü,man2_bearded_glassed,man,[0.02],3304,8,,
903,condition1,mustache-touting,bıyıklı,man2_mustached_glassed,man,[0],2816,9,,
903,condition1,red,kırmızı,frog_spotted_red,frog,[0.88],4732,10,,
903,condition1,blond,sarı,hair_curly_blonde,hair,[0.9],3587,11,,
903,condition1,open,açık,box_open_cardboard,box,[0.87],3265,12,,
903,condition1,big,büyük,bottle_glass_big,bottle,[0.95],2677,13,,
903,condition1,wooden,tahta,spoon_wooden_clean,spoon,[0],2700,14,,
903,condition1,glass,cam,bottle_glass_big,bottle,[0.87],3178,15,,
903,condition1,small,küçük,bottle_glass_small,bottle,[1],2993,16,,
903,condition1,round,yuvarlak,earring_big_round,earring,[0.85],3785,17,,
903,condition1,low,alçak,table_metal_low,table,[0.87],2539,18,,
903,condition1,bearded,sakallı,man_old_bearded,man,[0.02],3230,19,,
903,condition1,blue,mavi,pencil_long_blue,pencil,[0.86],2615,20,,
903,condition1,hat-wearing,şapkalı,man2_bearded_hatted,man,[0],2845,21,,
903,condition1,metal,metal,spoon_metal_clean,spoon,[0.56],4536,22,,
903,condition1,happy,mutlu,woman_old_happy,woman,[0.96],3572,23,,
903,condition1,straight,düz,hair_straight_blond,hair,[0.59],2949,24,,
903,condition1,colored,renkli,picture_colored_rectangular,picture,[0.61],4102,25,,
903,condition1,sad,mutsuz,woman_old_sad,woman,[0.87],2446,26,,
903,condition1,fat,şişman,woman2_happy_fat,woman,[0.98],2524,27,,
903,condition1,high,yüksek,table_metal_high,table,[0.9],1901,28,,
903,condition1,black,siyah,nails_black_glossy,nails,[0.94],2008,29,,
903,condition1,old,yaşlı,man_old_bearded,man,[0.92],2749,30,,
903,condition1,matte,mat,nails_black_matte,nails,[0.65],2511,31,,
903,condition1,clean-shaven,sakalsız,man_old_cleanshaven,man,[0],3037,32,,
903,condition1,triangular,üçgen,earring_big_triangular,earring,[0.03],3091,33,,
903,condition1,square,kare,picture_bw_square,picture,[0.01],1928,34,,
903,condition1,long,uzun,pencil_long_black,pencil,[0.72],2041,35,,
903,condition1,spotted,benekli,frog_spotted_green,frog,[0.02],3323,36,,
903,condition1,young,genç,man_young_bearded,man,[0.88],2451,37,,
903,condition1,striped,çizgili,frog_striped_green,frog,[0],2941,38,,
903,condition1,cardboard,karton,box_closed_cardboard,box,[0.02],2181,39,,
903,condition1,skinny,zayıf,woman2_happy_skinny,woman,[0.91],2097,40,,
903,condition1,glossy,parlak,nails_black_glossy,nails,[0.54],2836,41,,
903,condition1,closed,kapalı,box_closed_cardboard,box,[0.62],2339,42,,
903,condition1,brown,kahverengi,hair_curly_brown,hair,[0.62],2676,43,,
903,condition1,rectangular,dikdörtgen,picture_bw_rectangular,picture,[0.02],3781,44,,
903,condition1,clean,temiz,spoon_metal_clean,spoon,[0.64],2438,45,,
903,condition1,curly,kıvırcık,hair_curly_blonde,hair,[0.08],3825,46,,
903,condition1,dirty,kirli,spoon_metal_dirty,spoon,[0.55],2865,47,,
903,condition1,wet,ıslak,shorts_wet_green,shorts,[0.59],1840,48,,
943,condition1,,,,beyaz,beyaz,0,1,bot_check,
943,condition1,high,yüksek,table_metal_high,table,[0.67],19330,3,,
943,condition1,blond,sarı,hair_curly_blonde,hair,[0.15],9824,4,,
943,condition1,long,uzun,pencil_long_black,pencil,[0.77],3588,5,,
943,condition1,clean-shaven,sakalsız,man_old_cleanshaven,man,[0.25],5568,6,,
943,condition1,striped,çizgili,frog_striped_green,frog,[0.37],7592,7,,
943,condition1,cardboard,karton,box_closed_cardboard,box,[0.02],6743,8,,
943,condition1,red,kırmızı,frog_spotted_red,frog,[0.62],6654,9,,
943,condition1,glasses-wearing,gözlüklü,man2_bearded_glassed,man,[0],7257,10,,
943,condition1,closed,kapalı,box_closed_cardboard,box,[0.03],4561,11,,
943,condition1,colored,renkli,picture_colored_rectangular,picture,[0],5815,12,,
943,condition1,glass,cam,bottle_glass_big,bottle,[0],2117,13,,
943,condition1,square,kare,picture_bw_square,picture,[0],3783,14,,
943,condition1,dry,kuru,shorts_dry_green,shorts,[0.64],6301,15,,
943,condition1,hat-wearing,şapkalı,man2_bearded_hatted,man,[0.01],2645,16,,
943,condition1,straight,düz,hair_straight_blond,hair,[0.52],3360,17,,
943,condition1,triangular,üçgen,earring_big_triangular,earring,[0],3700,18,,
943,condition1,small,küçük,bottle_glass_small,bottle,[0.82],19496,19,,
943,condition1,mustache-touting,bıyıklı,man2_mustached_glassed,man,[0.03],2460,20,,
943,condition1,metal,metal,spoon_metal_clean,spoon,[0.15],2324,21,,
943,condition1,sad,mutsuz,woman_old_sad,woman,[0.69],6892,22,,
943,condition1,dirty,kirli,spoon_metal_dirty,spoon,[0.53],2429,23,,
943,condition1,spotted,benekli,frog_spotted_green,frog,[0.3],2770,24,,
943,condition1,open,açık,box_open_cardboard,box,[0.25],2949,25,,
943,condition1,rectangular,dikdörtgen,picture_bw_rectangular,picture,[0.08],2439,26,,
943,condition1,blue,mavi,pencil_long_blue,pencil,[0.55],3503,27,,
943,condition1,brown,kahverengi,hair_curly_brown,hair,[0.51],1842,28,,
943,condition1,matte,mat,nails_black_matte,nails,[0.47],4096,29,,
943,condition1,short,kısa,pencil_short_black,pencil,[0.77],6000,30,,
943,condition1,young,genç,man_young_bearded,man,[0.66],2220,31,,
943,condition1,plastic,plastik,bottle_plastic_big,bottle,[0.16],3354,32,,
943,condition1,old,yaşlı,man_old_bearded,man,[0.65],2603,33,,
943,condition1,glossy,parlak,nails_black_glossy,nails,[0.67],5353,34,,
943,condition1,black and white,siyah beyaz,picture_bw_rectangular,picture,[0.51],6582,35,,
943,condition1,black,siyah,nails_black_glossy,nails,[0.5],2874,36,,
943,condition1,happy,mutlu,woman_old_happy,woman,[0.77],2950,37,,
943,condition1,green,yeşil,frog_spotted_green,frog,[0.53],4980,38,,
943,condition1,clean,temiz,spoon_metal_clean,spoon,[0.7],5705,39,,
943,condition1,skinny,zayıf,woman2_happy_skinny,woman,[0.82],2282,40,,
943,condition1,bearded,sakallı,man_old_bearded,man,[0.08],3642,41,,
943,condition1,curly,kıvırcık,hair_curly_blonde,hair,[0.42],2553,42,,
943,condition1,wet,ıslak,shorts_wet_green,shorts,[0.74],2420,43,,
943,condition1,big,büyük,bottle_glass_big,bottle,[0.72],4035,44,,
943,condition1,round,yuvarlak,earring_big_round,earring,[0.14],3889,45,,
943,condition1,wooden,tahta,spoon_wooden_clean,spoon,[0.17],4124,46,,
943,condition1,low,alçak,table_metal_low,table,[0.89],1901,47,,
943,condition1,fat,şişman,woman2_happy_fat,woman,[0.86],1909,48,,
888,condition1,,,,beyaz,beyaz,0,1,bot_check,
888,condition1,round,yuvarlak,earring_big_round,earring,[0.47],12280,3,,
888,condition1,low,alçak,table_metal_low,table,[0.45],9471,4,,
888,condition1,sad,mutsuz,woman_old_sad,woman,[0.46],5565,5,,
888,condition1,long,uzun,pencil_long_black,pencil,[0.31],2918,6,,
888,condition1,blond,sarı,hair_curly_blonde,hair,[0.51],1721,7,,
888,condition1,open,açık,box_open_cardboard,box,[0.36],1596,8,,
888,condition1,dry,kuru,shorts_dry_green,shorts,[0.53],2773,9,,
888,condition1,wet,ıslak,shorts_wet_green,shorts,[0.51],3317,10,,
888,condition1,bearded,sakallı,man_old_bearded,man,[0.54],2995,11,,
888,condition1,big,büyük,bottle_glass_big,bottle,[0.47],8310,12,,
888,condition1,plastic,plastik,bottle_plastic_big,bottle,[0.47],4516,13,,
888,condition1,metal,metal,spoon_metal_clean,spoon,[0.49],1672,14,,
888,condition1,glasses-wearing,gözlüklü,man2_bearded_glassed,man,[0.46],1644,15,,
888,condition1,glass,cam,bottle_glass_big,bottle,[0.46],6126,16,,
888,condition1,happy,mutlu,woman_old_happy,woman,[0.37],2526,17,,
888,condition1,matte,mat,nails_black_matte,nails,[0.03],8191,18,,
888,condition1,black,siyah,nails_black_glossy,nails,[0.11],3283,19,,
888,condition1,wooden,tahta,spoon_wooden_clean,spoon,[0.09],2988,20,,
888,condition1,clean-shaven,sakalsız,man_old_cleanshaven,man,[0.03],30454,21,,
888,condition1,short,kısa,pencil_short_black,pencil,[0.09],2947,22,,
888,condition1,clean,temiz,spoon_metal_clean,spoon,[0.19],3983,23,,
888,condition1,brown,kahverengi,hair_curly_brown,hair,[0.25],3157,24,,
888,condition1,fat,şişman,woman2_happy_fat,woman,[0.99],6676,25,,
888,condition1,mustache-touting,bıyıklı,man2_mustached_glassed,man,[0.04],2731,26,,
888,condition1,skinny,zayıf,woman2_happy_skinny,woman,[0.98],2500,27,,
888,condition1,closed,kapalı,box_closed_cardboard,box,[0.08],9651,28,,
888,condition1,square,kare,picture_bw_square,picture,[0.55],50429,29,,
888,condition1,hat-wearing,şapkalı,man2_bearded_hatted,man,[0.47],17442,30,,
888,condition1,dirty,kirli,spoon_metal_dirty,spoon,[0.75],12873,31,,
888,condition1,glossy,parlak,nails_black_glossy,nails,[0.74],5480,32,,
888,condition1,red,kırmızı,frog_spotted_red,frog,[0.62],2214,33,,
888,condition1,spotted,benekli,frog_spotted_green,frog,[0.29],3163,34,,
888,condition1,rectangular,dikdörtgen,picture_bw_rectangular,picture,[0.07],2395,35,,
888,condition1,small,küçük,bottle_glass_small,bottle,[0.06],2128,36,,
888,condition1,cardboard,karton,box_closed_cardboard,box,[0.1],4532,37,,
888,condition1,straight,düz,hair_straight_blond,hair,[0.43],4223,38,,
888,condition1,triangular,üçgen,earring_big_triangular,earring,[0.07],4916,39,,
888,condition1,old,yaşlı,man_old_bearded,man,[0.76],19999,40,,
888,condition1,black and white,siyah beyaz,picture_bw_rectangular,picture,[0.05],3656,41,,
888,condition1,green,yeşil,frog_spotted_green,frog,[0.05],2521,42,,
888,condition1,young,genç,man_young_bearded,man,[0.84],3265,43,,
888,condition1,curly,kıvırcık,hair_curly_blonde,hair,[0.71],61648,44,,
888,condition1,colored,renkli,picture_colored_rectangular,picture,[0.09],5693,45,,
888,condition1,blue,mavi,pencil_long_blue,pencil,[0.45],32400,46,,
888,condition1,striped,çizgili,frog_striped_green,frog,[0.46],3136,47,,
888,condition1,high,yüksek,table_metal_high,table,[0.83],4176,48,,
894,condition1,,,,beyaz,Beyaz,0,1,bot_check,
894,condition1,metal,metal,spoon_metal_clean,spoon,[0.25],13030,3,,
894,condition1,red,kırmızı,frog_spotted_red,frog,[0.45],12870,4,,
894,condition1,glossy,parlak,nails_black_glossy,nails,[0.02],5041,5,,
894,condition1,cardboard,karton,box_closed_cardboard,box,[0.65],6602,6,,
894,condition1,young,genç,man_young_bearded,man,[0.16],9131,7,,
894,condition1,brown,kahverengi,hair_curly_brown,hair,[0.68],6182,8,,
894,condition1,long,uzun,pencil_long_black,pencil,[0.01],4783,9,,
894,condition1,clean-shaven,sakalsız,man_old_cleanshaven,man,[0.02],8465,10,,
894,condition1,hat-wearing,şapkalı,man2_bearded_hatted,man,[0.05],5572,11,,
894,condition1,dry,kuru,shorts_dry_green,shorts,[0.24],6314,12,,
894,condition1,old,yaşlı,man_old_bearded,man,[0.26],6618,13,,
894,condition1,wooden,tahta,spoon_wooden_clean,spoon,[0.07],11234,14,,
894,condition1,glasses-wearing,gözlüklü,man2_bearded_glassed,man,[0.02],6364,15,,
894,condition1,closed,kapalı,box_closed_cardboard,box,[0.19],6587,16,,
894,condition1,sad,mutsuz,woman_old_sad,woman,[0.83],23732,17,,
894,condition1,rectangular,dikdörtgen,picture_bw_rectangular,picture,[0.11],9081,18,,
894,condition1,happy,mutlu,woman_old_happy,woman,[0.89],5367,19,,
894,condition1,black,siyah,nails_black_glossy,nails,[0.07],6200,20,,
894,condition1,triangular,üçgen,earring_big_triangular,earring,[0.04],5120,21,,
894,condition1,small,küçük,bottle_glass_small,bottle,[0.25],4782,22,,
894,condition1,open,açık,box_open_cardboard,box,[0.23],7051,23,,
894,condition1,blue,mavi,pencil_long_blue,pencil,[0.05],6784,24,,
894,condition1,glass,cam,bottle_glass_big,bottle,[0.14],4999,25,,
894,condition1,green,yeşil,frog_spotted_green,frog,[0.04],6801,26,,
894,condition1,blond,sarı,hair_curly_blonde,hair,[0.19],7966,27,,
894,condition1,clean,temiz,spoon_metal_clean,spoon,[0.05],6601,28,,
894,condition1,spotted,benekli,frog_spotted_green,frog,[0],4447,29,,
894,condition1,colored,renkli,picture_colored_rectangular,picture,[0.05],7816,30,,
894,condition1,skinny,zayıf,woman2_happy_skinny,woman,[0.38],7585,31,,
894,condition1,matte,mat,nails_black_matte,nails,[0.21],8483,32,,
894,condition1,square,kare,picture_bw_square,picture,[0.09],7267,33,,
894,condition1,black and white,siyah beyaz,picture_bw_rectangular,picture,[0.14],7967,34,,
894,condition1,high,yüksek,table_metal_high,table,[0.49],6083,35,,
894,condition1,round,yuvarlak,earring_big_round,earring,[0.06],4437,36,,
894,condition1,low,alçak,table_metal_low,table,[0.5],6697,37,,
894,condition1,plastic,plastik,bottle_plastic_big,bottle,[0.11],7999,38,,
894,condition1,fat,şişman,woman2_happy_fat,woman,[0.11],7235,39,,
894,condition1,bearded,sakallı,man_old_bearded,man,[0.01],8614,40,,
894,condition1,straight,düz,hair_straight_blond,hair,[0.06],4485,41,,
894,condition1,big,büyük,bottle_glass_big,bottle,[0.33],6034,42,,
894,condition1,wet,ıslak,shorts_wet_green,shorts,[0.16],5031,43,,
894,condition1,striped,çizgili,frog_striped_green,frog,[0.02],3850,44,,
894,condition1,short,kısa,pencil_short_black,pencil,[0.01],4402,45,,
894,condition1,dirty,kirli,spoon_metal_dirty,spoon,[0.02],3665,46,,
894,condition1,mustache-touting,bıyıklı,man2_mustached_glassed,man,[0.01],3584,47,,
894,condition1,curly,kıvırcık,hair_curly_blonde,hair,[0.12],5399,48,,
908,condition1,,,,beyaz,Beyaz,0,1,bot_check,
908,condition1,glossy,parlak,nails_black_glossy,nails,[0.64],5009,3,,
908,condition1,straight,düz,hair_straight_blond,hair,[0.66],2447,4,,
908,condition1,matte,mat,nails_black_matte,nails,[0.61],1937,5,,
908,condition1,closed,kapalı,box_closed_cardboard,box,[0.01],2736,6,,
908,condition1,mustache-touting,bıyıklı,man2_mustached_glassed,man,[0.02],2387,7,,
908,condition1,glass,cam,bottle_glass_big,bottle,[0.15],3805,8,,
908,condition1,skinny,zayıf,woman2_happy_skinny,woman,[0.96],2041,9,,
908,condition1,black and white,siyah beyaz,picture_bw_rectangular,picture,[0.87],3154,10,,
908,condition1,plastic,plastik,bottle_plastic_big,bottle,[0.09],1977,11,,
908,condition1,square,kare,picture_bw_square,picture,[0.02],1965,12,,
908,condition1,short,kısa,pencil_short_black,pencil,[0.63],2193,13,,
908,condition1,cardboard,karton,box_closed_cardboard,box,[0.07],2966,14,,
908,condition1,long,uzun,pencil_long_black,pencil,[0.7],1836,15,,
908,condition1,blue,mavi,pencil_long_blue,pencil,[0.82],3359,16,,
908,condition1,striped,çizgili,frog_striped_green,frog,[0.04],3532,17,,
908,condition1,round,yuvarlak,earring_big_round,earring,[0.02],1936,18,,
908,condition1,open,açık,box_open_cardboard,box,[0.1],2535,19,,
908,condition1,high,yüksek,table_metal_high,table,[0.73],2070,20,,
908,condition1,wooden,tahta,spoon_wooden_clean,spoon,[0.15],2008,21,,
908,condition1,big,büyük,bottle_glass_big,bottle,[0.75],1901,22,,
908,condition1,low,alçak,table_metal_low,table,[0.72],1672,23,,
908,condition1,blond,sarı,hair_curly_blonde,hair,[0.84],2331,24,,
908,condition1,glasses-wearing,gözlüklü,man2_bearded_glassed,man,[0.05],2314,25,,
908,condition1,happy,mutlu,woman_old_happy,woman,[0.87],2025,26,,
908,condition1,sad,mutsuz,woman_old_sad,woman,[0.96],1697,27,,
908,condition1,dry,kuru,shorts_dry_green,shorts,[0.14],2526,28,,
908,condition1,young,genç,man_young_bearded,man,[0.92],1970,29,,
908,condition1,brown,kahverengi,hair_curly_brown,hair,[0.65],2455,30,,
908,condition1,green,yeşil,frog_spotted_green,frog,[0.65],2426,31,,
908,condition1,rectangular,dikdörtgen,picture_bw_rectangular,picture,[0.05],1946,32,,
908,condition1,colored,renkli,picture_colored_rectangular,picture,[0.68],2535,33,,
908,condition1,small,küçük,bottle_glass_small,bottle,[0.94],2753,34,,
908,condition1,old,yaşlı,man_old_bearded,man,[0.98],2162,35,,
908,condition1,triangular,üçgen,earring_big_triangular,earring,[0],2097,36,,
908,condition1,clean,temiz,spoon_metal_clean,spoon,[0.73],1902,37,,
908,condition1,clean-shaven,sakalsız,man_old_cleanshaven,man,[0.19],2105,38,,
908,condition1,wet,ıslak,shorts_wet_green,shorts,[0.57],1841,39,,
908,condition1,dirty,kirli,spoon_metal_dirty,spoon,[0.64],1816,40,,
908,condition1,fat,şişman,woman2_happy_fat,woman,[0.94],2082,41,,
908,condition1,black,siyah,nails_black_glossy,nails,[0.52],2608,42,,
908,condition1,metal,metal,spoon_metal_clean,spoon,[0.27],2162,43,,
908,condition1,hat-wearing,şapkalı,man2_bearded_hatted,man,[0.01],3139,44,,
908,condition1,bearded,sakallı,man_old_bearded,man,[0.14],3452,45,,
908,condition1,spotted,benekli,frog_spotted_green,frog,[0.18],3102,46,,
908,condition1,curly,kıvırcık,hair_curly_blonde,hair,[0.58],2221,47,,
908,condition1,red,kırmızı,frog_spotted_red,frog,[0.61],2596,48,,
940,condition1,,,,beyaz,Beyaz,0,1,bot_check,
940,condition1,round,yuvarlak,earring_big_round,earring,[1],13023,3,,
940,condition1,striped,çizgili,frog_striped_green,frog,[1],2048,4,,
940,condition1,wooden,tahta,spoon_wooden_clean,spoon,[1],2248,5,,
940,condition1,short,kısa,pencil_short_black,pencil,[0.99],2041,6,,
940,condition1,dry,kuru,shorts_dry_green,shorts,[1],6055,7,,
940,condition1,hat-wearing,şapkalı,man2_bearded_hatted,man,[0],2872,8,,
940,condition1,dirty,kirli,spoon_metal_dirty,spoon,[0],2504,9,,
940,condition1,closed,kapalı,box_closed_cardboard,box,[1],2120,10,,
940,condition1,metal,metal,spoon_metal_clean,spoon,[0],3064,11,,
940,condition1,spotted,benekli,frog_spotted_green,frog,[1],3071,12,,
940,condition1,black and white,siyah beyaz,picture_bw_rectangular,picture,[0],3449,13,,
940,condition1,old,yaşlı,man_old_bearded,man,[0],2631,14,,
940,condition1,clean-shaven,sakalsız,man_old_cleanshaven,man,[0],15230,15,,
940,condition1,triangular,üçgen,earring_big_triangular,earring,[0.02],3690,16,,
940,condition1,sad,mutsuz,woman_old_sad,woman,[1],3552,17,,
940,condition1,high,yüksek,table_metal_high,table,[1],3376,18,,
940,condition1,matte,mat,nails_black_matte,nails,[1],4024,19,,
940,condition1,open,açık,box_open_cardboard,box,[0],3168,20,,
940,condition1,happy,mutlu,woman_old_happy,woman,[1],3968,21,,
940,condition1,young,genç,man_young_bearded,man,[0],2904,22,,
940,condition1,blue,mavi,pencil_long_blue,pencil,[0],5287,23,,
940,condition1,brown,kahverengi,hair_curly_brown,hair,[0],2472,24,,
940,condition1,black,siyah,nails_black_glossy,nails,[0],1808,25,,
940,condition1,cardboard,karton,box_closed_cardboard,box,[0],2433,26,,
940,condition1,mustache-touting,bıyıklı,man2_mustached_glassed,man,[0],3591,27,,
940,condition1,fat,şişman,woman2_happy_fat,woman,[1],3544,28,,
940,condition1,wet,ıslak,shorts_wet_green,shorts,[1],2240,29,,
940,condition1,green,yeşil,frog_spotted_green,frog,[0],2392,30,,
940,condition1,square,kare,picture_bw_square,picture,[0],2920,31,,
940,condition1,small,küçük,bottle_glass_small,bottle,[0],2792,32,,
940,condition1,long,uzun,pencil_long_black,pencil,[0],2272,33,,
940,condition1,low,alçak,table_metal_low,table,[0],2167,34,,
940,condition1,clean,temiz,spoon_metal_clean,spoon,[0],2200,35,,
940,condition1,bearded,sakallı,man_old_bearded,man,[0],2560,36,,
940,condition1,rectangular,dikdörtgen,picture_bw_rectangular,picture,[0],1849,37,,
940,condition1,skinny,zayıf,woman2_happy_skinny,woman,[1],3255,38,,
940,condition1,curly,kıvırcık,hair_curly_blonde,hair,[0],1832,39,,
940,condition1,glasses-wearing,gözlüklü,man2_bearded_glassed,man,[0],1807,40,,
940,condition1,plastic,plastik,bottle_plastic_big,bottle,[1],3983,41,,
940,condition1,big,büyük,bottle_glass_big,bottle,[1],2399,42,,
940,condition1,blond,sarı,hair_curly_blonde,hair,[0],2465,43,,
940,condition1,straight,düz,hair_straight_blond,hair,[0],1751,44,,
940,condition1,red,kırmızı,frog_spotted_red,frog,[0],2137,45,,
940,condition1,colored,renkli,picture_colored_rectangular,picture,[0],1976,46,,
940,condition1,glass,cam,bottle_glass_big,bottle,[1],3176,47,,
940,condition1,glossy,parlak,nails_black_glossy,nails,[1],2080,48,,
929,condition1,,,,beyaz,Beyaz,0,1,bot_check,
929,condition1,hat-wearing,şapkalı,man2_bearded_hatted,man,[0.51],20825,3,,
929,condition1,dry,kuru,shorts_dry_green,shorts,[0.52],5984,4,,
929,condition1,round,yuvarlak,earring_big_round,earring,[0.42],4574,5,,
929,condition1,straight,düz,hair_straight_blond,hair,[0.52],9822,6,,
929,condition1,spotted,benekli,frog_spotted_green,frog,[0.55],3925,7,,
929,condition1,glasses-wearing,gözlüklü,man2_bearded_glassed,man,[0.03],8329,8,,
929,condition1,rectangular,dikdörtgen,picture_bw_rectangular,picture,[0.24],4006,9,,
929,condition1,curly,kıvırcık,hair_curly_blonde,hair,[0.48],4168,10,,
929,condition1,happy,mutlu,woman_old_happy,woman,[0.97],5307,11,,
929,condition1,glossy,parlak,nails_black_glossy,nails,[0.59],6578,12,,
929,condition1,dirty,kirli,spoon_metal_dirty,spoon,[0.96],7396,13,,
929,condition1,black,siyah,nails_black_glossy,nails,[0.02],4723,14,,
929,condition1,red,kırmızı,frog_spotted_red,frog,[0.02],3825,15,,
929,condition1,big,büyük,bottle_glass_big,bottle,[0.99],32620,16,,
929,condition1,black and white,siyah beyaz,picture_bw_rectangular,picture,[0.02],6153,17,,
929,condition1,low,alçak,table_metal_low,table,[0.71],3967,18,,
929,condition1,young,genç,man_young_bearded,man,[0.78],4004,19,,
929,condition1,green,yeşil,frog_spotted_green,frog,[0.03],4135,20,,
929,condition1,clean-shaven,sakalsız,man_old_cleanshaven,man,[0.35],6525,21,,
929,condition1,bearded,sakallı,man_old_bearded,man,[0.64],7409,22,,
929,condition1,blond,sarı,hair_curly_blonde,hair,[0.57],4453,23,,
929,condition1,plastic,plastik,bottle_plastic_big,bottle,[0.01],4919,24,,
929,condition1,striped,çizgili,frog_striped_green,frog,[0.33],3270,25,,
929,condition1,long,uzun,pencil_long_black,pencil,[0.66],3727,26,,
929,condition1,square,kare,picture_bw_square,picture,[0.03],3201,27,,
929,condition1,skinny,zayıf,woman2_happy_skinny,woman,[0.4],2840,28,,
929,condition1,brown,kahverengi,hair_curly_brown,hair,[0.66],4546,29,,
929,condition1,small,küçük,bottle_glass_small,bottle,[0.73],5500,30,,
929,condition1,short,kısa,pencil_short_black,pencil,[0.73],3317,31,,
929,condition1,open,açık,box_open_cardboard,box,[0],4360,32,,
929,condition1,triangular,üçgen,earring_big_triangular,earring,[0.01],3789,33,,
929,condition1,clean,temiz,spoon_metal_clean,spoon,[0.67],5281,34,,
929,condition1,matte,mat,nails_black_matte,nails,[0.73],4105,35,,
929,condition1,wet,ıslak,shorts_wet_green,shorts,[0.53],4349,36,,
929,condition1,colored,renkli,picture_colored_rectangular,picture,[0.01],13805,37,,
929,condition1,wooden,tahta,spoon_wooden_clean,spoon,[0.01],2733,38,,
929,condition1,high,yüksek,table_metal_high,table,[0.74],2884,39,,
929,condition1,sad,mutsuz,woman_old_sad,woman,[0.96],2982,40,,
929,condition1,glass,cam,bottle_glass_big,bottle,[0.02],2618,41,,
929,condition1,closed,kapalı,box_closed_cardboard,box,[0.04],2105,42,,
929,condition1,old,yaşlı,man_old_bearded,man,[0.73],3422,43,,
929,condition1,fat,şişman,woman2_happy_fat,woman,[0.91],3534,44,,
929,condition1,cardboard,karton,box_closed_cardboard,box,[0.03],2470,45,,
929,condition1,blue,mavi,pencil_long_blue,pencil,[0.17],4920,46,,
929,condition1,mustache-touting,bıyıklı,man2_mustached_glassed,man,[0.25],2823,47,,
929,condition1,metal,metal,spoon_metal_clean,spoon,[0.01],5054,48,,
934,condition1,,,,beyaz,Beyaz,0,1,bot_check,
934,condition1,wet,ıslak,shorts_wet_green,shorts,[0],20909,3,,
934,condition1,black,siyah,nails_black_glossy,nails,[0],6847,4,,
934,condition1,cardboard,karton,box_closed_cardboard,box,[0.46],6880,5,,
934,condition1,old,yaşlı,man_old_bearded,man,[1],13640,6,,
934,condition1,skinny,zayıf,woman2_happy_skinny,woman,[0.59],9999,7,,
934,condition1,metal,metal,spoon_metal_clean,spoon,[0],4528,8,,
934,condition1,curly,kıvırcık,hair_curly_blonde,hair,[0],5048,9,,
934,condition1,blond,sarı,hair_curly_blonde,hair,[0],3503,10,,
934,condition1,wooden,tahta,spoon_wooden_clean,spoon,[0],2808,11,,
934,condition1,triangular,üçgen,earring_big_triangular,earring,[0],3072,12,,
934,condition1,fat,şişman,woman2_happy_fat,woman,[0.68],5408,13,,
934,condition1,dry,kuru,shorts_dry_green,shorts,[0],3672,14,,
934,condition1,spotted,benekli,frog_spotted_green,frog,[0],3360,15,,
934,condition1,blue,mavi,pencil_long_blue,pencil,[0],2719,16,,
934,condition1,straight,düz,hair_straight_blond,hair,[0],3744,17,,
934,condition1,matte,mat,nails_black_matte,nails,[0.78],5528,18,,
934,condition1,green,yeşil,frog_spotted_green,frog,[0],2528,19,,
934,condition1,open,açık,box_open_cardboard,box,[0],3142,20,,
934,condition1,long,uzun,pencil_long_black,pencil,[0.48],6128,21,,
934,condition1,glasses-wearing,gözlüklü,man2_bearded_glassed,man,[0],3072,22,,
934,condition1,dirty,kirli,spoon_metal_dirty,spoon,[1],4567,23,,
934,condition1,bearded,sakallı,man_old_bearded,man,[0],2648,24,,
934,condition1,hat-wearing,şapkalı,man2_bearded_hatted,man,[0],3224,25,,
934,condition1,rectangular,dikdörtgen,picture_bw_rectangular,picture,[0],4856,26,,
934,condition1,sad,mutsuz,woman_old_sad,woman,[1],3591,27,,
934,condition1,black and white,siyah beyaz,picture_bw_rectangular,picture,[0],3088,28,,
934,condition1,round,yuvarlak,earring_big_round,earring,[0],2584,29,,
934,condition1,plastic,plastik,bottle_plastic_big,bottle,[0.48],3616,30,,
934,condition1,striped,çizgili,frog_striped_green,frog,[0.02],2975,31,,
934,condition1,mustache-touting,bıyıklı,man2_mustached_glassed,man,[0],5936,32,,
934,condition1,short,kısa,pencil_short_black,pencil,[0.56],8024,33,,
934,condition1,glossy,parlak,nails_black_glossy,nails,[0.57],3233,34,,
934,condition1,glass,cam,bottle_glass_big,bottle,[0],2391,35,,
934,condition1,clean-shaven,sakalsız,man_old_cleanshaven,man,[0.46],5463,36,,
934,condition1,big,büyük,bottle_glass_big,bottle,[0.51],3576,37,,
934,condition1,square,kare,picture_bw_square,picture,[0],2343,38,,
934,condition1,clean,temiz,spoon_metal_clean,spoon,[0.68],2408,39,,
934,condition1,red,kırmızı,frog_spotted_red,frog,[0],2249,40,,
934,condition1,young,genç,man_young_bearded,man,[1],3855,41,,
934,condition1,low,alçak,table_metal_low,table,[0.33],5584,42,,
934,condition1,closed,kapalı,box_closed_cardboard,box,[0.25],2872,43,,
934,condition1,small,küçük,bottle_glass_small,bottle,[0.16],6639,44,,
934,condition1,brown,kahverengi,hair_curly_brown,hair,[0],2568,45,,
934,condition1,happy,mutlu,woman_old_happy,woman,[1],4496,46,,
934,condition1,high,yüksek,table_metal_high,table,[0.48],6016,47,,
934,condition1,colored,renkli,picture_colored_rectangular,picture,[0],2743,48,,
904,condition1,,,,beyaz,beyaz,0,1,bot_check,
904,condition1,clean,temiz,spoon_metal_clean,spoon,[0.99],9030,3,,
904,condition1,young,genç,man_young_bearded,man,[0.01],8065,4,,
904,condition1,glass,cam,bottle_glass_big,bottle,[0.01],6049,5,,
904,condition1,black and white,siyah beyaz,picture_bw_rectangular,picture,[0],13540,6,,
904,condition1,colored,renkli,picture_colored_rectangular,picture,[0.01],4198,7,,
904,condition1,square,kare,picture_bw_square,picture,[0],3682,8,,
904,condition1,skinny,zayıf,woman2_happy_skinny,woman,[0.98],3814,9,,
904,condition1,wooden,tahta,spoon_wooden_clean,spoon,[0.02],4694,10,,
904,condition1,dirty,kirli,spoon_metal_dirty,spoon,[0.99],3475,11,,
904,condition1,old,yaşlı,man_old_bearded,man,[0.97],3681,12,,
904,condition1,green,yeşil,frog_spotted_green,frog,[0.02],4885,13,,
904,condition1,matte,mat,nails_black_matte,nails,[0.98],6606,14,,
904,condition1,short,kısa,pencil_short_black,pencil,[0.79],5398,15,,
904,condition1,bearded,sakallı,man_old_bearded,man,[0.6],2880,16,,
904,condition1,triangular,üçgen,earring_big_triangular,earring,[0.01],3367,17,,
904,condition1,small,küçük,bottle_glass_small,bottle,[0.29],4884,18,,
904,condition1,round,yuvarlak,earring_big_round,earring,[0.19],5436,19,,
904,condition1,hat-wearing,şapkalı,man2_bearded_hatted,man,[0.01],4449,20,,
904,condition1,wet,ıslak,shorts_wet_green,shorts,[0.15],3350,21,,
904,condition1,rectangular,dikdörtgen,picture_bw_rectangular,picture,[0.09],4006,22,,
904,condition1,mustache-touting,bıyıklı,man2_mustached_glassed,man,[0.56],4141,23,,
904,condition1,big,büyük,bottle_glass_big,bottle,[0.6],3779,24,,
904,condition1,fat,şişman,woman2_happy_fat,woman,[0.99],5400,25,,
904,condition1,long,uzun,pencil_long_black,pencil,[0.73],4632,26,,
904,condition1,glossy,parlak,nails_black_glossy,nails,[0.23],3869,27,,
904,condition1,low,alçak,table_metal_low,table,[0.45],2827,28,,
904,condition1,clean-shaven,sakalsız,man_old_cleanshaven,man,[0.68],3370,29,,
904,condition1,blue,mavi,pencil_long_blue,pencil,[0.24],3391,30,,
904,condition1,red,kırmızı,frog_spotted_red,frog,[0.59],3624,31,,
904,condition1,black,siyah,nails_black_glossy,nails,[0.63],2742,32,,
904,condition1,sad,mutsuz,woman_old_sad,woman,[1],3457,33,,
904,condition1,cardboard,karton,box_closed_cardboard,box,[0.11],7706,34,,
904,condition1,blond,sarı,hair_curly_blonde,hair,[0.17],2874,35,,
904,condition1,high,yüksek,table_metal_high,table,[0.39],5017,36,,
904,condition1,brown,kahverengi,hair_curly_brown,hair,[0.31],4683,37,,
904,condition1,glasses-wearing,gözlüklü,man2_bearded_glassed,man,[0.7],3596,38,,
904,condition1,dry,kuru,shorts_dry_green,shorts,[0.27],4586,39,,
904,condition1,straight,düz,hair_straight_blond,hair,[0.81],3293,40,,
904,condition1,happy,mutlu,woman_old_happy,woman,[0.98],3385,41,,
904,condition1,spotted,benekli,frog_spotted_green,frog,[0.69],3148,42,,
904,condition1,closed,kapalı,box_closed_cardboard,box,[0.11],3493,43,,
904,condition1,curly,kıvırcık,hair_curly_blonde,hair,[0.7],3674,44,,
904,condition1,open,açık,box_open_cardboard,box,[0.29],4409,45,,
904,condition1,striped,çizgili,frog_striped_green,frog,[0.19],2793,46,,
904,condition1,plastic,plastik,bottle_plastic_big,bottle,[0.19],2529,47,,
904,condition1,metal,metal,spoon_metal_clean,spoon,[0.16],2626,48,,
891,condition1,,,,beyaz,icecek,0,1,bot_check,
891,condition1,,,,beyaz,Yogurttan yapilan bir icecek,0,1,bot_check,
891,condition1,,,,beyaz,beyaz,0,1,bot_check,
891,condition1,sad,mutsuz,woman_old_sad,woman,[0.01],18251,3,,
891,condition1,bearded,sakallı,man_old_bearded,man,[0.01],8170,4,,
891,condition1,dirty,kirli,spoon_metal_dirty,spoon,[0.01],5651,5,,
891,condition1,cardboard,karton,box_closed_cardboard,box,[0.02],3271,6,,
891,condition1,glass,cam,bottle_glass_big,bottle,[0.01],2739,7,,
891,condition1,round,yuvarlak,earring_big_round,earring,[0.02],4171,8,,
891,condition1,green,yeşil,frog_spotted_green,frog,[0.97],4139,9,,
891,condition1,red,kırmızı,frog_spotted_red,frog,[1],4827,10,,
891,condition1,spotted,benekli,frog_spotted_green,frog,[0.02],3167,11,,
891,condition1,hat-wearing,şapkalı,man2_bearded_hatted,man,[0],5727,12,,
891,condition1,closed,kapalı,box_closed_cardboard,box,[0],5414,13,,
891,condition1,big,büyük,bottle_glass_big,bottle,[0.99],8422,14,,
891,condition1,brown,kahverengi,hair_curly_brown,hair,[0.98],2971,15,,
891,condition1,colored,renkli,picture_colored_rectangular,picture,[0.02],4923,16,,
891,condition1,clean-shaven,sakalsız,man_old_cleanshaven,man,[0.01],5631,17,,
891,condition1,fat,şişman,woman2_happy_fat,woman,[0.99],4454,18,,
891,condition1,blue,mavi,pencil_long_blue,pencil,[1],5371,19,,
891,condition1,happy,mutlu,woman_old_happy,woman,[0],7818,20,,
891,condition1,skinny,zayıf,woman2_happy_skinny,woman,[0.99],4075,21,,
891,condition1,plastic,plastik,bottle_plastic_big,bottle,[0.03],2591,22,,
891,condition1,glossy,parlak,nails_black_glossy,nails,[0.01],2696,23,,
891,condition1,wet,ıslak,shorts_wet_green,shorts,[0],3138,24,,
891,condition1,wooden,tahta,spoon_wooden_clean,spoon,[0.01],2968,25,,
891,condition1,young,genç,man_young_bearded,man,[0.02],3531,26,,
891,condition1,old,yaşlı,man_old_bearded,man,[0],2283,27,,
891,condition1,triangular,üçgen,earring_big_triangular,earring,[0.02],2724,28,,
891,condition1,rectangular,dikdörtgen,picture_bw_rectangular,picture,[0],2982,29,,
891,condition1,long,uzun,pencil_long_black,pencil,[0.02],5031,30,,
891,condition1,square,kare,picture_bw_square,picture,[0.02],2422,31,,
891,condition1,low,alçak,table_metal_low,table,[0.02],2697,32,,
891,condition1,black and white,siyah beyaz,picture_bw_rectangular,picture,[0],4118,33,,
891,condition1,clean,temiz,spoon_metal_clean,spoon,[0.01],4051,34,,
891,condition1,blond,sarı,hair_curly_blonde,hair,[0.99],4558,35,,
891,condition1,open,açık,box_open_cardboard,box,[0.02],3024,36,,
891,condition1,dry,kuru,shorts_dry_green,shorts,[0.02],4391,37,,
891,condition1,short,kısa,pencil_short_black,pencil,[0.02],3855,38,,
891,condition1,black,siyah,nails_black_glossy,nails,[0.01],4810,39,,
891,condition1,straight,düz,hair_straight_blond,hair,[0],2768,40,,
891,condition1,metal,metal,spoon_metal_clean,spoon,[0.02],2399,41,,
891,condition1,striped,çizgili,frog_striped_green,frog,[0.03],3199,42,,
891,condition1,mustache-touting,bıyıklı,man2_mustached_glassed,man,[0.01],2376,43,,
891,condition1,glasses-wearing,gözlüklü,man2_bearded_glassed,man,[0],2191,44,,
891,condition1,high,yüksek,table_metal_high,table,[0],3511,45,,
891,condition1,curly,kıvırcık,hair_curly_blonde,hair,[0.03],3679,46,,
891,condition1,small,küçük,bottle_glass_small,bottle,[0.01],3416,47,,
891,condition1,matte,mat,nails_black_matte,nails,[0.01],3256,48,,
914,condition1,,,,beyaz,beyaz,0,1,bot_check,
914,condition1,blond,sarı,hair_curly_blonde,hair,[1],51171,3,,
914,condition1,skinny,zayıf,woman2_happy_skinny,woman,[1],3720,4,,
914,condition1,blue,mavi,pencil_long_blue,pencil,[1],4012,5,,
914,condition1,mustache-touting,bıyıklı,man2_mustached_glassed,man,[0],4793,6,,
914,condition1,small,küçük,bottle_glass_small,bottle,[1],2790,7,,
914,condition1,striped,çizgili,frog_striped_green,frog,[0],4687,8,,
914,condition1,curly,kıvırcık,hair_curly_blonde,hair,[1],2738,9,,
914,condition1,triangular,üçgen,earring_big_triangular,earring,[0.02],3187,10,,
914,condition1,closed,kapalı,box_closed_cardboard,box,[0.51],3480,11,,
914,condition1,red,kırmızı,frog_spotted_red,frog,[0],2798,12,,
914,condition1,short,kısa,pencil_short_black,pencil,[1],2250,13,,
914,condition1,long,uzun,pencil_long_black,pencil,[1],1650,14,,
914,condition1,wet,ıslak,shorts_wet_green,shorts,[1],3862,15,,
914,condition1,matte,mat,nails_black_matte,nails,[1],2152,16,,
914,condition1,spotted,benekli,frog_spotted_green,frog,[0],3150,17,,
914,condition1,low,alçak,table_metal_low,table,[1],2858,18,,
914,condition1,glass,cam,bottle_glass_big,bottle,[0],4334,19,,
914,condition1,glossy,parlak,nails_black_glossy,nails,[1],3472,20,,
914,condition1,young,genç,man_young_bearded,man,[1],1988,21,,
914,condition1,dry,kuru,shorts_dry_green,shorts,[1],10192,22,,
914,condition1,dirty,kirli,spoon_metal_dirty,spoon,[1],3983,23,,
914,condition1,fat,şişman,woman2_happy_fat,woman,[1],3480,24,,
914,condition1,old,yaşlı,man_old_bearded,man,[1],1515,25,,
914,condition1,rectangular,dikdörtgen,picture_bw_rectangular,picture,[0],1852,26,,
914,condition1,round,yuvarlak,earring_big_round,earring,[0],4110,27,,
914,condition1,open,açık,box_open_cardboard,box,[0.02],4103,28,,
914,condition1,black,siyah,nails_black_glossy,nails,[0],2820,29,,
914,condition1,sad,mutsuz,woman_old_sad,woman,[1],5460,30,,
914,condition1,metal,metal,spoon_metal_clean,spoon,[0],1905,31,,
914,condition1,black and white,siyah beyaz,picture_bw_rectangular,picture,[0],3344,32,,
914,condition1,hat-wearing,şapkalı,man2_bearded_hatted,man,[0],3451,33,,
914,condition1,straight,düz,hair_straight_blond,hair,[1],5573,34,,
914,condition1,square,kare,picture_bw_square,picture,[0],1799,35,,
914,condition1,happy,mutlu,woman_old_happy,woman,[1],2160,36,,
914,condition1,high,yüksek,table_metal_high,table,[1],2122,37,,
914,condition1,plastic,plastik,bottle_plastic_big,bottle,[0],2040,38,,
914,condition1,bearded,sakallı,man_old_bearded,man,[0],4065,39,,
914,condition1,cardboard,karton,box_closed_cardboard,box,[0],3803,40,,
914,condition1,wooden,tahta,spoon_wooden_clean,spoon,[0],3157,41,,
914,condition1,brown,kahverengi,hair_curly_brown,hair,[0],3833,42,,
914,condition1,clean-shaven,sakalsız,man_old_cleanshaven,man,[0],2242,43,,
914,condition1,green,yeşil,frog_spotted_green,frog,[0],2168,44,,
914,condition1,colored,renkli,picture_colored_rectangular,picture,[0],9329,45,,
914,condition1,big,büyük,bottle_glass_big,bottle,[1],4635,46,,
914,condition1,glasses-wearing,gözlüklü,man2_bearded_glassed,man,[0],4792,47,,
914,condition1,clean,temiz,spoon_metal_clean,spoon,[1],8243,48,,
938,condition1,,,,beyaz,beyaz,0,1,bot_check,
938,condition1,curly,kıvırcık,hair_curly_blonde,hair,[0.97],16081,3,,
938,condition1,plastic,plastik,bottle_plastic_big,bottle,[0.01],9847,4,,
938,condition1,spotted,benekli,frog_spotted_green,frog,[0.36],7849,5,,
938,condition1,clean-shaven,sakalsız,man_old_cleanshaven,man,[0.27],13396,6,,
938,condition1,closed,kapalı,box_closed_cardboard,box,[0.16],7585,7,,
938,condition1,big,büyük,bottle_glass_big,bottle,[0.99],7177,8,,
938,condition1,mustache-touting,bıyıklı,man2_mustached_glassed,man,[0.23],4326,9,,
938,condition1,brown,kahverengi,hair_curly_brown,hair,[0.47],6418,10,,
938,condition1,happy,mutlu,woman_old_happy,woman,[0.35],6820,11,,
938,condition1,sad,mutsuz,woman_old_sad,woman,[0.37],3585,12,,
938,condition1,black,siyah,nails_black_glossy,nails,[0.29],5487,13,,
938,condition1,straight,düz,hair_straight_blond,hair,[0.85],4048,14,,
938,condition1,open,açık,box_open_cardboard,box,[0.03],5428,15,,
938,condition1,dry,kuru,shorts_dry_green,shorts,[0.02],4724,16,,
938,condition1,long,uzun,pencil_long_black,pencil,[1],4112,17,,
938,condition1,glasses-wearing,gözlüklü,man2_bearded_glassed,man,[0.04],3068,18,,
938,condition1,young,genç,man_young_bearded,man,[0.78],3076,19,,
938,condition1,green,yeşil,frog_spotted_green,frog,[0.28],2720,20,,
938,condition1,glossy,parlak,nails_black_glossy,nails,[0.8],3170,21,,
938,condition1,glass,cam,bottle_glass_big,bottle,[0.01],2915,22,,
938,condition1,dirty,kirli,spoon_metal_dirty,spoon,[0.46],8021,23,,
938,condition1,blue,mavi,pencil_long_blue,pencil,[0.65],5024,24,,
938,condition1,short,kısa,pencil_short_black,pencil,[0.78],3714,25,,
938,condition1,small,küçük,bottle_glass_small,bottle,[0.74],2482,26,,
938,condition1,high,yüksek,table_metal_high,table,[0.7],2089,27,,
938,condition1,old,yaşlı,man_old_bearded,man,[0.39],2148,28,,
938,condition1,black and white,siyah beyaz,picture_bw_rectangular,picture,[0.88],9136,29,,
938,condition1,skinny,zayıf,woman2_happy_skinny,woman,[0.84],4717,30,,
938,condition1,rectangular,dikdörtgen,picture_bw_rectangular,picture,[0.02],3371,31,,
938,condition1,wet,ıslak,shorts_wet_green,shorts,[0.05],3603,32,,
938,condition1,square,kare,picture_bw_square,picture,[0.03],3540,33,,
938,condition1,metal,metal,spoon_metal_clean,spoon,[0],8868,34,,
938,condition1,red,kırmızı,frog_spotted_red,frog,[0.49],2600,35,,
938,condition1,clean,temiz,spoon_metal_clean,spoon,[0.51],2362,36,,
938,condition1,cardboard,karton,box_closed_cardboard,box,[0.01],2980,37,,
938,condition1,wooden,tahta,spoon_wooden_clean,spoon,[0.02],3554,38,,
938,condition1,low,alçak,table_metal_low,table,[0.68],2734,39,,
938,condition1,blond,sarı,hair_curly_blonde,hair,[0.58],3483,40,,
938,condition1,matte,mat,nails_black_matte,nails,[0.61],2317,41,,
938,condition1,bearded,sakallı,man_old_bearded,man,[0.57],2479,42,,
938,condition1,colored,renkli,picture_colored_rectangular,picture,[0.3],3427,43,,
938,condition1,fat,şişman,woman2_happy_fat,woman,[0.65],3867,44,,
938,condition1,hat-wearing,şapkalı,man2_bearded_hatted,man,[0.01],3162,45,,
938,condition1,round,yuvarlak,earring_big_round,earring,[0],5512,46,,
938,condition1,triangular,üçgen,earring_big_triangular,earring,[0.01],2534,47,,
938,condition1,striped,çizgili,frog_striped_green,frog,[0],3014,48,,
889,condition1,,,,beyaz,beyaz,0,1,bot_check,
889,condition1,spotted,benekli,frog_spotted_green,frog,[0],13899,3,,
889,condition1,round,yuvarlak,earring_big_round,earring,[0],8682,4,,
889,condition1,clean-shaven,sakalsız,man_old_cleanshaven,man,[0],25816,5,,
889,condition1,closed,kapalı,box_closed_cardboard,box,[0],11468,6,,
889,condition1,happy,mutlu,woman_old_happy,woman,[1],6644,7,,
889,condition1,small,küçük,bottle_glass_small,bottle,[1],4877,8,,
889,condition1,straight,düz,hair_straight_blond,hair,[0],4435,9,,
889,condition1,glasses-wearing,gözlüklü,man2_bearded_glassed,man,[0],7803,10,,
889,condition1,short,kısa,pencil_short_black,pencil,[1],3877,11,,
889,condition1,cardboard,karton,box_closed_cardboard,box,[0],4971,12,,
889,condition1,hat-wearing,şapkalı,man2_bearded_hatted,man,[0],5730,13,,
889,condition1,young,genç,man_young_bearded,man,[1],3557,14,,
889,condition1,square,kare,picture_bw_square,picture,[0],3833,15,,
889,condition1,old,yaşlı,man_old_bearded,man,[1],3682,16,,
889,condition1,dirty,kirli,spoon_metal_dirty,spoon,[0.27],7567,17,,
889,condition1,metal,metal,spoon_metal_clean,spoon,[0],3211,18,,
889,condition1,high,yüksek,table_metal_high,table,[1],3778,19,,
889,condition1,dry,kuru,shorts_dry_green,shorts,[0],3766,20,,
889,condition1,matte,mat,nails_black_matte,nails,[0.17],4117,21,,
889,condition1,triangular,üçgen,earring_big_triangular,earring,[0],3487,22,,
889,condition1,big,büyük,bottle_glass_big,bottle,[1],3818,23,,
889,condition1,glass,cam,bottle_glass_big,bottle,[0],3036,24,,
889,condition1,curly,kıvırcık,hair_curly_blonde,hair,[0.16],10756,25,,
889,condition1,colored,renkli,picture_colored_rectangular,picture,[0],5559,26,,
889,condition1,bearded,sakallı,man_old_bearded,man,[0.29],5016,27,,
889,condition1,rectangular,dikdörtgen,picture_bw_rectangular,picture,[0],18300,28,,
889,condition1,open,açık,box_open_cardboard,box,[0],2971,29,,
889,condition1,clean,temiz,spoon_metal_clean,spoon,[0.21],3027,30,,
889,condition1,mustache-touting,bıyıklı,man2_mustached_glassed,man,[0],2498,31,,
889,condition1,green,yeşil,frog_spotted_green,frog,[0.18],6821,32,,
889,condition1,wooden,tahta,spoon_wooden_clean,spoon,[0],5621,33,,
889,condition1,low,alçak,table_metal_low,table,[1],9277,34,,
889,condition1,black,siyah,nails_black_glossy,nails,[0.08],4839,35,,
889,condition1,striped,çizgili,frog_striped_green,frog,[0],4725,36,,
889,condition1,fat,şişman,woman2_happy_fat,woman,[1],3727,37,,
889,condition1,blue,mavi,pencil_long_blue,pencil,[0.11],2790,38,,
889,condition1,black and white,siyah beyaz,picture_bw_rectangular,picture,[0],5063,39,,
889,condition1,brown,kahverengi,hair_curly_brown,hair,[0.17],4118,40,,
889,condition1,wet,ıslak,shorts_wet_green,shorts,[0],16223,41,,
889,condition1,blond,sarı,hair_curly_blonde,hair,[0.12],3067,42,,
889,condition1,red,kırmızı,frog_spotted_red,frog,[0.09],21120,43,,
889,condition1,skinny,zayıf,woman2_happy_skinny,woman,[1],4770,44,,
889,condition1,long,uzun,pencil_long_black,pencil,[1],3150,45,,
889,condition1,glossy,parlak,nails_black_glossy,nails,[1],4050,46,,
889,condition1,sad,mutsuz,woman_old_sad,woman,[1],26548,47,,
889,condition1,plastic,plastik,bottle_plastic_big,bottle,[0],3023,48,,
917,condition1,,,,beyaz,beyaz,0,1,bot_check,
917,condition1,blue,mavi,pencil_long_blue,pencil,[0],9712,3,,
917,condition1,red,kırmızı,frog_spotted_red,frog,[0.01],3464,4,,
917,condition1,rectangular,dikdörtgen,picture_bw_rectangular,picture,[0.01],4985,5,,
917,condition1,closed,kapalı,box_closed_cardboard,box,[0],3609,6,,
917,condition1,big,büyük,bottle_glass_big,bottle,[0.98],3592,7,,
917,condition1,short,kısa,pencil_short_black,pencil,[0.98],2587,8,,
917,condition1,green,yeşil,frog_spotted_green,frog,[0],3232,9,,
917,condition1,striped,çizgili,frog_striped_green,frog,[0],3664,10,,
917,condition1,colored,renkli,picture_colored_rectangular,picture,[0.01],5822,11,,
917,condition1,round,yuvarlak,earring_big_round,earring,[0],4569,12,,
917,condition1,spotted,benekli,frog_spotted_green,frog,[0.02],2895,13,,
917,condition1,glasses-wearing,gözlüklü,man2_bearded_glassed,man,[0],2387,14,,
917,condition1,metal,metal,spoon_metal_clean,spoon,[0.46],8920,15,,
917,condition1,brown,kahverengi,hair_curly_brown,hair,[0.01],4505,16,,
917,condition1,fat,şişman,woman2_happy_fat,woman,[0.99],2783,17,,
917,condition1,matte,mat,nails_black_matte,nails,[0.01],2638,18,,
917,condition1,clean,temiz,spoon_metal_clean,spoon,[0.98],2835,19,,
917,condition1,old,yaşlı,man_old_bearded,man,[0.98],4232,20,,
917,condition1,mustache-touting,bıyıklı,man2_mustached_glassed,man,[0.03],2824,21,,
917,condition1,sad,mutsuz,woman_old_sad,woman,[0.99],2678,22,,
917,condition1,triangular,üçgen,earring_big_triangular,earring,[0],2074,23,,
917,condition1,clean-shaven,sakalsız,man_old_cleanshaven,man,[0.01],2864,24,,
917,condition1,blond,sarı,hair_curly_blonde,hair,[0.01],1898,25,,
917,condition1,square,kare,picture_bw_square,picture,[0.02],2358,26,,
917,condition1,skinny,zayıf,woman2_happy_skinny,woman,[0.99],3383,27,,
917,condition1,bearded,sakallı,man_old_bearded,man,[0.01],1874,28,,
917,condition1,high,yüksek,table_metal_high,table,[0.97],2927,29,,
917,condition1,black,siyah,nails_black_glossy,nails,[0.01],1754,30,,
917,condition1,young,genç,man_young_bearded,man,[1],1998,31,,
917,condition1,hat-wearing,şapkalı,man2_bearded_hatted,man,[0],2065,32,,
917,condition1,glass,cam,bottle_glass_big,bottle,[0],3231,33,,
917,condition1,glossy,parlak,nails_black_glossy,nails,[0.01],2967,34,,
917,condition1,wet,ıslak,shorts_wet_green,shorts,[0.01],6571,35,,
917,condition1,open,açık,box_open_cardboard,box,[0.01],1814,36,,
917,condition1,happy,mutlu,woman_old_happy,woman,[0.98],2178,37,,
917,condition1,cardboard,karton,box_closed_cardboard,box,[0],3792,38,,
917,condition1,small,küçük,bottle_glass_small,bottle,[0.97],2374,39,,
917,condition1,dry,kuru,shorts_dry_green,shorts,[0.01],3123,40,,
917,condition1,curly,kıvırcık,hair_curly_blonde,hair,[0],2111,41,,
917,condition1,black and white,siyah beyaz,picture_bw_rectangular,picture,[0],5009,42,,
917,condition1,dirty,kirli,spoon_metal_dirty,spoon,[0.98],2711,43,,
917,condition1,plastic,plastik,bottle_plastic_big,bottle,[0],4433,44,,
917,condition1,wooden,tahta,spoon_wooden_clean,spoon,[0.01],2203,45,,
917,condition1,low,alçak,table_metal_low,table,[0.99],2502,46,,
917,condition1,long,uzun,pencil_long_black,pencil,[1],3584,47,,
917,condition1,straight,düz,hair_straight_blond,hair,[0],3016,48,,
905,condition1,,,,beyaz,Beyaz,0,1,bot_check,
905,condition1,matte,mat,nails_black_matte,nails,[0.65],1212,3,,
905,condition1,glasses-wearing,gözlüklü,man2_bearded_glassed,man,[0],9262,4,,
905,condition1,square,kare,picture_bw_square,picture,[0],5808,5,,
905,condition1,green,yeşil,frog_spotted_green,frog,[0],4729,6,,
905,condition1,glossy,parlak,nails_black_glossy,nails,[0],3421,7,,
905,condition1,blond,sarı,hair_curly_blonde,hair,[0],2722,8,,
905,condition1,skinny,zayıf,woman2_happy_skinny,woman,[0],4009,9,,
905,condition1,red,kırmızı,frog_spotted_red,frog,[0],2536,10,,
905,condition1,metal,metal,spoon_metal_clean,spoon,[0],1748,11,,
905,condition1,clean,temiz,spoon_metal_clean,spoon,[0],1242,12,,
905,condition1,young,genç,man_young_bearded,man,[0],2258,13,,
905,condition1,glass,cam,bottle_glass_big,bottle,[0],2021,14,,
905,condition1,dry,kuru,shorts_dry_green,shorts,[0],1106,15,,
905,condition1,closed,kapalı,box_closed_cardboard,box,[0],1675,16,,
905,condition1,big,büyük,bottle_glass_big,bottle,[0.02],1776,17,,
905,condition1,straight,düz,hair_straight_blond,hair,[0.03],1179,18,,
905,condition1,plastic,plastik,bottle_plastic_big,bottle,[0.04],2065,19,,
905,condition1,brown,kahverengi,hair_curly_brown,hair,[0.01],3112,20,,
905,condition1,black and white,siyah beyaz,picture_bw_rectangular,picture,[0.02],1785,21,,
905,condition1,long,uzun,pencil_long_black,pencil,[0.03],1535,22,,
905,condition1,clean-shaven,sakalsız,man_old_cleanshaven,man,[0],902,23,,
905,condition1,open,açık,box_open_cardboard,box,[0],1096,24,,
905,condition1,old,yaşlı,man_old_bearded,man,[0],1168,25,,
905,condition1,colored,renkli,picture_colored_rectangular,picture,[0.03],1100,26,,
905,condition1,sad,mutsuz,woman_old_sad,woman,[0],1121,27,,
905,condition1,striped,çizgili,frog_striped_green,frog,[0],1659,28,,
905,condition1,round,yuvarlak,earring_big_round,earring,[0.04],999,29,,
905,condition1,rectangular,dikdörtgen,picture_bw_rectangular,picture,[0.02],737,30,,
905,condition1,happy,mutlu,woman_old_happy,woman,[0.05],1189,31,,
905,condition1,high,yüksek,table_metal_high,table,[0.06],957,32,,
905,condition1,cardboard,karton,box_closed_cardboard,box,[0.04],730,33,,
905,condition1,short,kısa,pencil_short_black,pencil,[0.03],982,34,,
905,condition1,blue,mavi,pencil_long_blue,pencil,[0.05],1291,35,,
905,condition1,fat,şişman,woman2_happy_fat,woman,[0.09],825,36,,
905,condition1,dirty,kirli,spoon_metal_dirty,spoon,[0.08],1744,37,,
905,condition1,mustache-touting,bıyıklı,man2_mustached_glassed,man,[0.02],1870,38,,
905,condition1,bearded,sakallı,man_old_bearded,man,[0.04],1060,39,,
905,condition1,curly,kıvırcık,hair_curly_blonde,hair,[0.06],868,40,,
905,condition1,black,siyah,nails_black_glossy,nails,[0.04],2599,41,,
905,condition1,hat-wearing,şapkalı,man2_bearded_hatted,man,[0.07],722,42,,
905,condition1,wet,ıslak,shorts_wet_green,shorts,[0.05],1248,43,,
905,condition1,spotted,benekli,frog_spotted_green,frog,[0.03],641,44,,
905,condition1,triangular,üçgen,earring_big_triangular,earring,[0.03],599,45,,
905,condition1,small,küçük,bottle_glass_small,bottle,[0.06],1046,46,,
905,condition1,low,alçak,table_metal_low,table,[0],1248,47,,
905,condition1,wooden,tahta,spoon_wooden_clean,spoon,[0],927,48,,
922,condition1,,,,beyaz,Beyaz,0,1,bot_check,
922,condition1,low,alçak,table_metal_low,table,[1],9083,3,,
922,condition1,dry,kuru,shorts_dry_green,shorts,[0.21],17617,4,,
922,condition1,rectangular,dikdörtgen,picture_bw_rectangular,picture,[0],3418,5,,
922,condition1,plastic,plastik,bottle_plastic_big,bottle,[0],4996,6,,
922,condition1,round,yuvarlak,earring_big_round,earring,[0],4903,7,,
922,condition1,sad,mutsuz,woman_old_sad,woman,[1],6217,8,,
922,condition1,long,uzun,pencil_long_black,pencil,[0.85],16348,9,,
922,condition1,colored,renkli,picture_colored_rectangular,picture,[0],4864,10,,
922,condition1,open,açık,box_open_cardboard,box,[0],46143,11,,
922,condition1,clean-shaven,sakalsız,man_old_cleanshaven,man,[0],5492,12,,
922,condition1,black,siyah,nails_black_glossy,nails,[0.46],18491,13,,
922,condition1,glossy,parlak,nails_black_glossy,nails,[0.49],3087,14,,
922,condition1,curly,kıvırcık,hair_curly_blonde,hair,[0.47],2326,15,,
922,condition1,brown,kahverengi,hair_curly_brown,hair,[0.48],3460,16,,
922,condition1,blue,mavi,pencil_long_blue,pencil,[0.45],3313,17,,
922,condition1,spotted,benekli,frog_spotted_green,frog,[0],6994,18,,
922,condition1,straight,düz,hair_straight_blond,hair,[0.17],3833,19,,
922,condition1,cardboard,karton,box_closed_cardboard,box,[0],3436,20,,
922,condition1,hat-wearing,şapkalı,man2_bearded_hatted,man,[0],2899,21,,
922,condition1,old,yaşlı,man_old_bearded,man,[0.99],6470,22,,
922,condition1,green,yeşil,frog_spotted_green,frog,[0.2],7469,23,,
922,condition1,glass,cam,bottle_glass_big,bottle,[0],11768,24,,
922,condition1,happy,mutlu,woman_old_happy,woman,[0.82],7497,25,,
922,condition1,big,büyük,bottle_glass_big,bottle,[0.7],5916,26,,
922,condition1,matte,mat,nails_black_matte,nails,[0.65],2758,27,,
922,condition1,glasses-wearing,gözlüklü,man2_bearded_glassed,man,[0],3327,28,,
922,condition1,square,kare,picture_bw_square,picture,[0],4218,29,,
922,condition1,mustache-touting,bıyıklı,man2_mustached_glassed,man,[0.19],5736,30,,
922,condition1,dirty,kirli,spoon_metal_dirty,spoon,[0.77],20581,31,,
922,condition1,clean,temiz,spoon_metal_clean,spoon,[0.69],2714,32,,
922,condition1,small,küçük,bottle_glass_small,bottle,[0.65],2772,33,,
922,condition1,red,kırmızı,frog_spotted_red,frog,[0.46],3730,34,,
922,condition1,wet,ıslak,shorts_wet_green,shorts,[0.28],5733,35,,
922,condition1,triangular,üçgen,earring_big_triangular,earring,[0],4417,36,,
922,condition1,black and white,siyah beyaz,picture_bw_rectangular,picture,[0.25],9932,37,,
922,condition1,wooden,tahta,spoon_wooden_clean,spoon,[0],5739,38,,
922,condition1,metal,metal,spoon_metal_clean,spoon,[0],5155,39,,
922,condition1,closed,kapalı,box_closed_cardboard,box,[0],3460,40,,
922,condition1,bearded,sakallı,man_old_bearded,man,[0],7678,41,,
922,condition1,striped,çizgili,frog_striped_green,frog,[0.1],9495,42,,
922,condition1,young,genç,man_young_bearded,man,[0.71],3697,43,,
922,condition1,high,yüksek,table_metal_high,table,[0.69],3290,44,,
922,condition1,fat,şişman,woman2_happy_fat,woman,[0.81],4302,45,,
922,condition1,short,kısa,pencil_short_black,pencil,[0.79],2954,46,,
922,condition1,blond,sarı,hair_curly_blonde,hair,[0.46],4599,47,,
922,condition1,skinny,zayıf,woman2_happy_skinny,woman,[0.84],6231,48,,
911,condition1,,,,beyaz,beyaz,0,1,bot_check,
911,condition1,high,yüksek,table_metal_high,table,[0.73],9271,3,,
911,condition1,big,büyük,bottle_glass_big,bottle,[0.45],3163,4,,
911,condition1,fat,şişman,woman2_happy_fat,woman,[0.49],2062,5,,
911,condition1,square,kare,picture_bw_square,picture,[0.61],1833,6,,
911,condition1,cardboard,karton,box_closed_cardboard,box,[0.32],2716,7,,
911,condition1,straight,düz,hair_straight_blond,hair,[0.54],2655,8,,
911,condition1,triangular,üçgen,earring_big_triangular,earring,[0.3],2627,9,,
911,condition1,spotted,benekli,frog_spotted_green,frog,[0.24],3012,10,,
911,condition1,green,yeşil,frog_spotted_green,frog,[0.15],5094,11,,
911,condition1,metal,metal,spoon_metal_clean,spoon,[0.85],5035,12,,
911,condition1,glasses-wearing,gözlüklü,man2_bearded_glassed,man,[0.14],3290,13,,
911,condition1,black,siyah,nails_black_glossy,nails,[0.85],3518,14,,
911,condition1,open,açık,box_open_cardboard,box,[0.21],2358,15,,
911,condition1,dry,kuru,shorts_dry_green,shorts,[0.46],1896,16,,
911,condition1,small,küçük,bottle_glass_small,bottle,[0.36],2070,17,,
911,condition1,hat-wearing,şapkalı,man2_bearded_hatted,man,[0.6],1537,18,,
911,condition1,wet,ıslak,shorts_wet_green,shorts,[0.35],1752,19,,
911,condition1,matte,mat,nails_black_matte,nails,[0.57],1785,20,,
911,condition1,round,yuvarlak,earring_big_round,earring,[0.33],1537,21,,
911,condition1,old,yaşlı,man_old_bearded,man,[0.62],2060,22,,
911,condition1,clean-shaven,sakalsız,man_old_cleanshaven,man,[0.37],1736,23,,
911,condition1,striped,çizgili,frog_striped_green,frog,[0.7],1828,24,,
911,condition1,glass,cam,bottle_glass_big,bottle,[0.67],1886,25,,
911,condition1,closed,kapalı,box_closed_cardboard,box,[0.71],1685,26,,
911,condition1,bearded,sakallı,man_old_bearded,man,[0.73],1555,27,,
911,condition1,brown,kahverengi,hair_curly_brown,hair,[0.33],1467,28,,
911,condition1,happy,mutlu,woman_old_happy,woman,[0.56],1587,29,,
911,condition1,black and white,siyah beyaz,picture_bw_rectangular,picture,[0.58],1486,30,,
911,condition1,blue,mavi,pencil_long_blue,pencil,[0.61],1883,31,,
911,condition1,sad,mutsuz,woman_old_sad,woman,[0.41],1297,32,,
911,condition1,plastic,plastik,bottle_plastic_big,bottle,[0.66],1755,33,,
911,condition1,blond,sarı,hair_curly_blonde,hair,[0.42],2901,34,,
911,condition1,glossy,parlak,nails_black_glossy,nails,[0.61],1447,35,,
911,condition1,clean,temiz,spoon_metal_clean,spoon,[0.35],2061,36,,
911,condition1,short,kısa,pencil_short_black,pencil,[0.69],1835,37,,
911,condition1,curly,kıvırcık,hair_curly_blonde,hair,[0.39],1538,38,,
911,condition1,long,uzun,pencil_long_black,pencil,[0.64],1973,39,,
911,condition1,young,genç,man_young_bearded,man,[0.45],1634,40,,
911,condition1,low,alçak,table_metal_low,table,[0.61],1594,41,,
911,condition1,wooden,tahta,spoon_wooden_clean,spoon,[0.63],1557,42,,
911,condition1,mustache-touting,bıyıklı,man2_mustached_glassed,man,[0.39],1535,43,,
911,condition1,red,kırmızı,frog_spotted_red,frog,[0.54],1495,44,,
911,condition1,dirty,kirli,spoon_metal_dirty,spoon,[0.59],1388,45,,
911,condition1,skinny,zayıf,woman2_happy_skinny,woman,[0.37],1527,46,,
911,condition1,colored,renkli,picture_colored_rectangular,picture,[0.71],1396,47,,
911,condition1,rectangular,dikdörtgen,picture_bw_rectangular,picture,[0.29],1615,48,,
958,condition1,,,,beyaz,beyaz,0,1,bot_check,
958,condition1,matte,mat,nails_black_matte,nails,[0.99],9691,3,,
958,condition1,brown,kahverengi,hair_curly_brown,hair,[0.99],6002,4,,
958,condition1,long,uzun,pencil_long_black,pencil,[0.99],4114,5,,
958,condition1,low,alçak,table_metal_low,table,[0.99],3628,6,,
958,condition1,cardboard,karton,box_closed_cardboard,box,[0.02],5333,7,,
958,condition1,green,yeşil,frog_spotted_green,frog,[0.99],4428,8,,
958,condition1,triangular,üçgen,earring_big_triangular,earring,[0.02],3924,9,,
958,condition1,young,genç,man_young_bearded,man,[0.99],3066,10,,
958,condition1,mustache-touting,bıyıklı,man2_mustached_glassed,man,[0.02],3337,11,,
958,condition1,glass,cam,bottle_glass_big,bottle,[0.02],4134,12,,
958,condition1,dry,kuru,shorts_dry_green,shorts,[0.99],7011,13,,
958,condition1,high,yüksek,table_metal_high,table,[0.97],6320,14,,
958,condition1,short,kısa,pencil_short_black,pencil,[0.97],2504,15,,
958,condition1,straight,düz,hair_straight_blond,hair,[0.98],4298,16,,
958,condition1,sad,mutsuz,woman_old_sad,woman,[0.97],3494,17,,
958,condition1,wet,ıslak,shorts_wet_green,shorts,[0.97],4294,18,,
958,condition1,clean-shaven,sakalsız,man_old_cleanshaven,man,[0.01],3130,19,,
958,condition1,clean,temiz,spoon_metal_clean,spoon,[0.97],4945,20,,
958,condition1,old,yaşlı,man_old_bearded,man,[0.97],3478,21,,
958,condition1,red,kırmızı,frog_spotted_red,frog,[0.98],9419,22,,
958,condition1,colored,renkli,picture_colored_rectangular,picture,[0.99],5318,23,,
958,condition1,glasses-wearing,gözlüklü,man2_bearded_glassed,man,[0.01],5866,24,,
958,condition1,blond,sarı,hair_curly_blonde,hair,[0.99],3563,25,,
958,condition1,skinny,zayıf,woman2_happy_skinny,woman,[0.98],3477,26,,
958,condition1,round,yuvarlak,earring_big_round,earring,[0.02],3458,27,,
958,condition1,square,kare,picture_bw_square,picture,[0.01],3506,28,,
958,condition1,blue,mavi,pencil_long_blue,pencil,[0.97],3457,29,,
958,condition1,hat-wearing,şapkalı,man2_bearded_hatted,man,[0.03],3739,30,,
958,condition1,metal,metal,spoon_metal_clean,spoon,[0.02],7105,31,,
958,condition1,black,siyah,nails_black_glossy,nails,[0.99],3250,32,,
958,condition1,wooden,tahta,spoon_wooden_clean,spoon,[0.01],4856,33,,
958,condition1,spotted,benekli,frog_spotted_green,frog,[0.01],5044,34,,
958,condition1,curly,kıvırcık,hair_curly_blonde,hair,[0.98],3851,35,,
958,condition1,glossy,parlak,nails_black_glossy,nails,[0.99],3073,36,,
958,condition1,black and white,siyah beyaz,picture_bw_rectangular,picture,[0],8158,37,,
958,condition1,big,büyük,bottle_glass_big,bottle,[0.99],2668,38,,
958,condition1,striped,çizgili,frog_striped_green,frog,[0.48],6908,39,,
958,condition1,fat,şişman,woman2_happy_fat,woman,[0.97],3948,40,,
958,condition1,bearded,sakallı,man_old_bearded,man,[0.03],3049,41,,
958,condition1,open,açık,box_open_cardboard,box,[0.98],3254,42,,
958,condition1,happy,mutlu,woman_old_happy,woman,[0.98],3876,43,,
958,condition1,closed,kapalı,box_closed_cardboard,box,[0.97],3722,44,,
958,condition1,small,küçük,bottle_glass_small,bottle,[0.98],3306,45,,
958,condition1,plastic,plastik,bottle_plastic_big,bottle,[0.03],3410,46,,
958,condition1,rectangular,dikdörtgen,picture_bw_rectangular,picture,[0.02],3126,47,,
958,condition1,dirty,kirli,spoon_metal_dirty,spoon,[0.98],3033,48,,
921,condition1,,,,beyaz,Beyaz,0,1,bot_check,
921,condition1,low,alçak,table_metal_low,table,[0.48],27643,3,,
921,condition1,old,yaşlı,man_old_bearded,man,[0.45],3499,4,,
921,condition1,plastic,plastik,bottle_plastic_big,bottle,[0.01],4010,5,,
921,condition1,colored,renkli,picture_colored_rectangular,picture,[0.02],5519,6,,
921,condition1,long,uzun,pencil_long_black,pencil,[0.44],4869,7,,
921,condition1,cardboard,karton,box_closed_cardboard,box,[0.02],3343,8,,
921,condition1,closed,kapalı,box_closed_cardboard,box,[0],3294,9,,
921,condition1,bearded,sakallı,man_old_bearded,man,[0.18],5822,10,,
921,condition1,short,kısa,pencil_short_black,pencil,[0.41],6143,11,,
921,condition1,blue,mavi,pencil_long_blue,pencil,[0.16],3609,12,,
921,condition1,rectangular,dikdörtgen,picture_bw_rectangular,picture,[0.04],2744,13,,
921,condition1,green,yeşil,frog_spotted_green,frog,[0.01],3301,14,,
921,condition1,square,kare,picture_bw_square,picture,[0.02],2493,15,,
921,condition1,open,açık,box_open_cardboard,box,[0.02],2427,16,,
921,condition1,big,büyük,bottle_glass_big,bottle,[0.99],5053,17,,
921,condition1,happy,mutlu,woman_old_happy,woman,[0.95],5225,18,,
921,condition1,hat-wearing,şapkalı,man2_bearded_hatted,man,[0.01],2984,19,,
921,condition1,fat,şişman,woman2_happy_fat,woman,[0.49],3894,20,,
921,condition1,red,kırmızı,frog_spotted_red,frog,[0.03],2727,21,,
921,condition1,triangular,üçgen,earring_big_triangular,earring,[0.04],3669,22,,
921,condition1,sad,mutsuz,woman_old_sad,woman,[0.96],2970,23,,
921,condition1,curly,kıvırcık,hair_curly_blonde,hair,[0],2777,24,,
921,condition1,skinny,zayıf,woman2_happy_skinny,woman,[0.5],2711,25,,
921,condition1,dirty,kirli,spoon_metal_dirty,spoon,[0.01],5309,26,,
921,condition1,wet,ıslak,shorts_wet_green,shorts,[0.04],3335,27,,
921,condition1,glossy,parlak,nails_black_glossy,nails,[0.49],5012,28,,
921,condition1,black and white,siyah beyaz,picture_bw_rectangular,picture,[0.04],3752,29,,
921,condition1,round,yuvarlak,earring_big_round,earring,[0.12],3753,30,,
921,condition1,glass,cam,bottle_glass_big,bottle,[0.02],3147,31,,
921,condition1,wooden,tahta,spoon_wooden_clean,spoon,[0.02],3009,32,,
921,condition1,young,genç,man_young_bearded,man,[0.97],4831,33,,
921,condition1,mustache-touting,bıyıklı,man2_mustached_glassed,man,[0.04],4653,34,,
921,condition1,brown,kahverengi,hair_curly_brown,hair,[0.5],3860,35,,
921,condition1,glasses-wearing,gözlüklü,man2_bearded_glassed,man,[0.01],13771,36,,
921,condition1,striped,çizgili,frog_striped_green,frog,[0.57],26280,37,,
921,condition1,blond,sarı,hair_curly_blonde,hair,[0.45],2735,38,,
921,condition1,metal,metal,spoon_metal_clean,spoon,[0],3078,39,,
921,condition1,black,siyah,nails_black_glossy,nails,[0.51],2859,40,,
921,condition1,spotted,benekli,frog_spotted_green,frog,[0.14],4298,41,,
921,condition1,clean,temiz,spoon_metal_clean,spoon,[0.99],5513,42,,
921,condition1,matte,mat,nails_black_matte,nails,[0.44],2490,43,,
921,condition1,straight,düz,hair_straight_blond,hair,[0.47],3194,44,,
921,condition1,small,küçük,bottle_glass_small,bottle,[0.24],5313,45,,
921,condition1,high,yüksek,table_metal_high,table,[0.5],2944,46,,
921,condition1,clean-shaven,sakalsız,man_old_cleanshaven,man,[0.01],2202,47,,
921,condition1,dry,kuru,shorts_dry_green,shorts,[0.01],2324,48,,
909,condition1,,,,beyaz,beyaz,0,1,bot_check,
909,condition1,striped,çizgili,frog_striped_green,frog,[0.1],12387,3,,
909,condition1,open,açık,box_open_cardboard,box,[0.01],2814,4,,
909,condition1,green,yeşil,frog_spotted_green,frog,[0],3072,5,,
909,condition1,blue,mavi,pencil_long_blue,pencil,[0],1976,6,,
909,condition1,triangular,üçgen,earring_big_triangular,earring,[0],1559,7,,
909,condition1,matte,mat,nails_black_matte,nails,[0.21],2856,8,,
909,condition1,glasses-wearing,gözlüklü,man2_bearded_glassed,man,[0.13],1976,9,,
909,condition1,rectangular,dikdörtgen,picture_bw_rectangular,picture,[0],1536,10,,
909,condition1,hat-wearing,şapkalı,man2_bearded_hatted,man,[0.05],1600,11,,
909,condition1,spotted,benekli,frog_spotted_green,frog,[0],1401,12,,
909,condition1,dirty,kirli,spoon_metal_dirty,spoon,[0.37],2113,13,,
909,condition1,glass,cam,bottle_glass_big,bottle,[0],1638,14,,
909,condition1,small,küçük,bottle_glass_small,bottle,[0.37],2679,15,,
909,condition1,red,kırmızı,frog_spotted_red,frog,[0],3176,16,,
909,condition1,closed,kapalı,box_closed_cardboard,box,[0.04],3329,17,,
909,condition1,old,yaşlı,man_old_bearded,man,[0.32],2111,18,,
909,condition1,colored,renkli,picture_colored_rectangular,picture,[0.09],2050,19,,
909,condition1,fat,şişman,woman2_happy_fat,woman,[0.39],1766,20,,
909,condition1,brown,kahverengi,hair_curly_brown,hair,[0],2760,21,,
909,condition1,straight,düz,hair_straight_blond,hair,[0.18],2216,22,,
909,condition1,plastic,plastik,bottle_plastic_big,bottle,[0],1432,23,,
909,condition1,blond,sarı,hair_curly_blonde,hair,[0],1479,24,,
909,condition1,curly,kıvırcık,hair_curly_blonde,hair,[0.18],1776,25,,
909,condition1,black,siyah,nails_black_glossy,nails,[0],1591,26,,
909,condition1,wooden,tahta,spoon_wooden_clean,spoon,[0],1416,27,,
909,condition1,glossy,parlak,nails_black_glossy,nails,[0.4],2783,28,,
909,condition1,square,kare,picture_bw_square,picture,[0],1630,29,,
909,condition1,metal,metal,spoon_metal_clean,spoon,[0],1490,30,,
909,condition1,sad,mutsuz,woman_old_sad,woman,[0.85],4170,31,,
909,condition1,long,uzun,pencil_long_black,pencil,[0.69],2228,32,,
909,condition1,low,alçak,table_metal_low,table,[0.63],1480,33,,
909,condition1,happy,mutlu,woman_old_happy,woman,[0.85],1930,34,,
909,condition1,young,genç,man_young_bearded,man,[0.76],1520,35,,
909,condition1,big,büyük,bottle_glass_big,bottle,[0.77],1496,36,,
909,condition1,bearded,sakallı,man_old_bearded,man,[0.16],2704,37,,
909,condition1,wet,ıslak,shorts_wet_green,shorts,[0.18],1425,38,,
909,condition1,clean,temiz,spoon_metal_clean,spoon,[0.52],2112,39,,
909,condition1,short,kısa,pencil_short_black,pencil,[0.67],1880,40,,
909,condition1,skinny,zayıf,woman2_happy_skinny,woman,[0.69],1546,41,,
909,condition1,dry,kuru,shorts_dry_green,shorts,[0.25],2010,42,,
909,condition1,mustache-touting,bıyıklı,man2_mustached_glassed,man,[0.19],1570,43,,
909,condition1,high,yüksek,table_metal_high,table,[0.78],1687,44,,
909,condition1,round,yuvarlak,earring_big_round,earring,[0.17],2344,45,,
909,condition1,cardboard,karton,box_closed_cardboard,box,[0],1712,46,,
909,condition1,black and white,siyah beyaz,picture_bw_rectangular,picture,[0],1562,47,,
909,condition1,clean-shaven,sakalsız,man_old_cleanshaven,man,[0.18],3071,48,,
890,condition1,,,,beyaz,beyaz,0,1,bot_check,
890,condition1,square,kare,picture_bw_square,picture,[0.11],45199,3,,
890,condition1,happy,mutlu,woman_old_happy,woman,[0.78],8483,4,,
890,condition1,spotted,benekli,frog_spotted_green,frog,[0.01],5666,5,,
890,condition1,green,yeşil,frog_spotted_green,frog,[0.2],5086,6,,
890,condition1,black,siyah,nails_black_glossy,nails,[0.15],8610,7,,
890,condition1,fat,şişman,woman2_happy_fat,woman,[0.62],8018,8,,
890,condition1,high,yüksek,table_metal_high,table,[1],5078,9,,
890,condition1,old,yaşlı,man_old_bearded,man,[0.58],8454,10,,
890,condition1,clean-shaven,sakalsız,man_old_cleanshaven,man,[0.06],9400,11,,
890,condition1,blond,sarı,hair_curly_blonde,hair,[0.19],8071,12,,
890,condition1,glossy,parlak,nails_black_glossy,nails,[0.19],5025,13,,
890,condition1,small,küçük,bottle_glass_small,bottle,[1],5518,14,,
890,condition1,round,yuvarlak,earring_big_round,earring,[0.16],5990,15,,
890,condition1,rectangular,dikdörtgen,picture_bw_rectangular,picture,[0.09],3716,16,,
890,condition1,red,kırmızı,frog_spotted_red,frog,[0.19],4318,17,,
890,condition1,hat-wearing,şapkalı,man2_bearded_hatted,man,[0],4110,18,,
890,condition1,black and white,siyah beyaz,picture_bw_rectangular,picture,[0.07],5364,19,,
890,condition1,dirty,kirli,spoon_metal_dirty,spoon,[0.88],4776,20,,
890,condition1,wooden,tahta,spoon_wooden_clean,spoon,[0.04],4938,21,,
890,condition1,matte,mat,nails_black_matte,nails,[0.15],3599,22,,
890,condition1,wet,ıslak,shorts_wet_green,shorts,[0.25],5533,23,,
890,condition1,open,açık,box_open_cardboard,box,[0.21],4001,24,,
890,condition1,closed,kapalı,box_closed_cardboard,box,[0.17],3096,25,,
890,condition1,brown,kahverengi,hair_curly_brown,hair,[0.26],3597,26,,
890,condition1,metal,metal,spoon_metal_clean,spoon,[0],4751,27,,
890,condition1,plastic,plastik,bottle_plastic_big,bottle,[0],4133,28,,
890,condition1,young,genç,man_young_bearded,man,[0.69],2770,29,,
890,condition1,sad,mutsuz,woman_old_sad,woman,[1],3258,30,,
890,condition1,cardboard,karton,box_closed_cardboard,box,[0.07],3430,31,,
890,condition1,colored,renkli,picture_colored_rectangular,picture,[0],3126,32,,
890,condition1,short,kısa,pencil_short_black,pencil,[1],2869,33,,
890,condition1,straight,düz,hair_straight_blond,hair,[0.28],3397,34,,
890,condition1,dry,kuru,shorts_dry_green,shorts,[0.2],3667,35,,
890,condition1,low,alçak,table_metal_low,table,[0.94],3699,36,,
890,condition1,striped,çizgili,frog_striped_green,frog,[0.1],3768,37,,
890,condition1,skinny,zayıf,woman2_happy_skinny,woman,[0.68],7259,38,,
890,condition1,clean,temiz,spoon_metal_clean,spoon,[0.66],4929,39,,
890,condition1,mustache-touting,bıyıklı,man2_mustached_glassed,man,[0],4573,40,,
890,condition1,glasses-wearing,gözlüklü,man2_bearded_glassed,man,[0.04],3002,41,,
890,condition1,blue,mavi,pencil_long_blue,pencil,[0.17],2856,42,,
890,condition1,bearded,sakallı,man_old_bearded,man,[0.12],5194,43,,
890,condition1,big,büyük,bottle_glass_big,bottle,[0.85],3242,44,,
890,condition1,long,uzun,pencil_long_black,pencil,[0.83],4846,45,,
890,condition1,curly,kıvırcık,hair_curly_blonde,hair,[0.23],3312,46,,
890,condition1,glass,cam,bottle_glass_big,bottle,[0.05],3862,47,,
890,condition1,triangular,üçgen,earring_big_triangular,earring,[0],3390,48,,
913,condition1,,,,beyaz,beyaz,0,1,bot_check,
913,condition1,short,kısa,pencil_short_black,pencil,[0.1],22999,3,,
913,condition1,glass,cam,bottle_glass_big,bottle,[0],5256,4,,
913,condition1,black,siyah,nails_black_glossy,nails,[0.33],3800,5,,
913,condition1,blue,mavi,pencil_long_blue,pencil,[0.21],9871,6,,
913,condition1,cardboard,karton,box_closed_cardboard,box,[0],4872,7,,
913,condition1,mustache-touting,bıyıklı,man2_mustached_glassed,man,[0.21],2656,8,,
913,condition1,green,yeşil,frog_spotted_green,frog,[0.3],3543,9,,
913,condition1,skinny,zayıf,woman2_happy_skinny,woman,[1],3856,10,,
913,condition1,blond,sarı,hair_curly_blonde,hair,[0.22],3223,11,,
913,condition1,young,genç,man_young_bearded,man,[1],2496,12,,
913,condition1,colored,renkli,picture_colored_rectangular,picture,[0],3416,13,,
913,condition1,glasses-wearing,gözlüklü,man2_bearded_glassed,man,[0],3120,14,,
913,condition1,glossy,parlak,nails_black_glossy,nails,[1],4343,15,,
913,condition1,high,yüksek,table_metal_high,table,[1],2599,16,,
913,condition1,fat,şişman,woman2_happy_fat,woman,[1],2263,17,,
913,condition1,round,yuvarlak,earring_big_round,earring,[0],3823,18,,
913,condition1,open,açık,box_open_cardboard,box,[0],2591,19,,
913,condition1,dry,kuru,shorts_dry_green,shorts,[0],4991,20,,
913,condition1,clean,temiz,spoon_metal_clean,spoon,[0.3],2927,21,,
913,condition1,black and white,siyah beyaz,picture_bw_rectangular,picture,[0],2848,22,,
913,condition1,straight,düz,hair_straight_blond,hair,[0.24],2832,23,,
913,condition1,red,kırmızı,frog_spotted_red,frog,[0],4775,24,,
913,condition1,matte,mat,nails_black_matte,nails,[1],2487,25,,
913,condition1,long,uzun,pencil_long_black,pencil,[0.65],3912,26,,
913,condition1,dirty,kirli,spoon_metal_dirty,spoon,[0.27],3311,27,,
913,condition1,hat-wearing,şapkalı,man2_bearded_hatted,man,[0],2255,28,,
913,condition1,wet,ıslak,shorts_wet_green,shorts,[0.29],2935,29,,
913,condition1,brown,kahverengi,hair_curly_brown,hair,[0.63],2904,30,,
913,condition1,metal,metal,spoon_metal_clean,spoon,[0],2791,31,,
913,condition1,triangular,üçgen,earring_big_triangular,earring,[0],2135,32,,
913,condition1,striped,çizgili,frog_striped_green,frog,[0],3160,33,,
913,condition1,big,büyük,bottle_glass_big,bottle,[1],3487,34,,
913,condition1,wooden,tahta,spoon_wooden_clean,spoon,[0],2567,35,,
913,condition1,sad,mutsuz,woman_old_sad,woman,[1],2520,36,,
913,condition1,spotted,benekli,frog_spotted_green,frog,[0],2263,37,,
913,condition1,small,küçük,bottle_glass_small,bottle,[1],2383,38,,
913,condition1,square,kare,picture_bw_square,picture,[0],2136,39,,
913,condition1,clean-shaven,sakalsız,man_old_cleanshaven,man,[0.13],2215,40,,
913,condition1,curly,kıvırcık,hair_curly_blonde,hair,[0],3048,41,,
913,condition1,rectangular,dikdörtgen,picture_bw_rectangular,picture,[0],2281,42,,
913,condition1,plastic,plastik,bottle_plastic_big,bottle,[0],2352,43,,
913,condition1,closed,kapalı,box_closed_cardboard,box,[0],2632,44,,
913,condition1,happy,mutlu,woman_old_happy,woman,[1],2112,45,,
913,condition1,old,yaşlı,man_old_bearded,man,[1],1944,46,,
913,condition1,low,alçak,table_metal_low,table,[1],2032,47,,
913,condition1,bearded,sakallı,man_old_bearded,man,[0],3016,48,,
897,condition1,,,,beyaz,beyaz,0,1,bot_check,
897,condition1,clean-shaven,sakalsız,man_old_cleanshaven,man,[0],5186,3,,
897,condition1,rectangular,dikdörtgen,picture_bw_rectangular,picture,[0.02],2794,4,,
897,condition1,dirty,kirli,spoon_metal_dirty,spoon,[0.5],4900,5,,
897,condition1,black and white,siyah beyaz,picture_bw_rectangular,picture,[0.01],2246,6,,
897,condition1,long,uzun,pencil_long_black,pencil,[0.63],4714,7,,
897,condition1,square,kare,picture_bw_square,picture,[0.01],2292,8,,
897,condition1,matte,mat,nails_black_matte,nails,[0.02],3250,9,,
897,condition1,wooden,tahta,spoon_wooden_clean,spoon,[0],2246,10,,
897,condition1,spotted,benekli,frog_spotted_green,frog,[0.02],2268,11,,
897,condition1,round,yuvarlak,earring_big_round,earring,[0.02],1928,12,,
897,condition1,open,açık,box_open_cardboard,box,[0.01],1850,13,,
897,condition1,blue,mavi,pencil_long_blue,pencil,[0.02],1772,14,,
897,condition1,glossy,parlak,nails_black_glossy,nails,[0.18],2370,15,,
897,condition1,brown,kahverengi,hair_curly_brown,hair,[0.12],3894,16,,
897,condition1,glasses-wearing,gözlüklü,man2_bearded_glassed,man,[0.01],1911,17,,
897,condition1,wet,ıslak,shorts_wet_green,shorts,[0.22],3167,18,,
897,condition1,fat,şişman,woman2_happy_fat,woman,[0.77],5420,19,,
897,condition1,blond,sarı,hair_curly_blonde,hair,[0.13],2540,20,,
897,condition1,big,büyük,bottle_glass_big,bottle,[0.59],2840,21,,
897,condition1,striped,çizgili,frog_striped_green,frog,[0.02],1973,22,,
897,condition1,glass,cam,bottle_glass_big,bottle,[0.02],2363,23,,
897,condition1,young,genç,man_young_bearded,man,[0.62],3856,24,,
897,condition1,low,alçak,table_metal_low,table,[0.59],2206,25,,
897,condition1,dry,kuru,shorts_dry_green,shorts,[0.1],2082,26,,
897,condition1,clean,temiz,spoon_metal_clean,spoon,[0.58],2685,27,,
897,condition1,high,yüksek,table_metal_high,table,[0.55],1974,28,,
897,condition1,triangular,üçgen,earring_big_triangular,earring,[0.02],2247,29,,
897,condition1,straight,düz,hair_straight_blond,hair,[0.03],2430,30,,
897,condition1,plastic,plastik,bottle_plastic_big,bottle,[0.11],2826,31,,
897,condition1,red,kırmızı,frog_spotted_red,frog,[0.02],2268,32,,
897,condition1,small,küçük,bottle_glass_small,bottle,[0.68],2500,33,,
897,condition1,green,yeşil,frog_spotted_green,frog,[0.02],1850,34,,
897,condition1,closed,kapalı,box_closed_cardboard,box,[0.02],2322,35,,
897,condition1,short,kısa,pencil_short_black,pencil,[0.57],2014,36,,
897,condition1,sad,mutsuz,woman_old_sad,woman,[0.98],2886,37,,
897,condition1,skinny,zayıf,woman2_happy_skinny,woman,[0.73],4096,38,,
897,condition1,bearded,sakallı,man_old_bearded,man,[0.02],2446,39,,
897,condition1,happy,mutlu,woman_old_happy,woman,[0.97],2431,40,,
897,condition1,curly,kıvırcık,hair_curly_blonde,hair,[0.02],2934,41,,
897,condition1,cardboard,karton,box_closed_cardboard,box,[0.02],2276,42,,
897,condition1,colored,renkli,picture_colored_rectangular,picture,[0.01],2330,43,,
897,condition1,hat-wearing,şapkalı,man2_bearded_hatted,man,[0.02],1920,44,,
897,condition1,old,yaşlı,man_old_bearded,man,[0.71],2338,45,,
897,condition1,mustache-touting,bıyıklı,man2_mustached_glassed,man,[0.01],2461,46,,
897,condition1,metal,metal,spoon_metal_clean,spoon,[0],1983,47,,
897,condition1,black,siyah,nails_black_glossy,nails,[0.01],2167,48,,
887,condition1,,,,beyaz,beyaz,0,1,bot_check,
887,condition1,green,yeşil,frog_spotted_green,frog,[0.82],16135,3,,
887,condition1,square,kare,picture_bw_square,picture,[0.82],4339,4,,
887,condition1,dry,kuru,shorts_dry_green,shorts,[0.8],3792,5,,
887,condition1,blue,mavi,pencil_long_blue,pencil,[0.84],4283,6,,
887,condition1,wet,ıslak,shorts_wet_green,shorts,[0.83],3501,7,,
887,condition1,clean,temiz,spoon_metal_clean,spoon,[0.87],4642,8,,
887,condition1,high,yüksek,table_metal_high,table,[0.85],2974,9,,
887,condition1,old,yaşlı,man_old_bearded,man,[0.74],4094,10,,
887,condition1,short,kısa,pencil_short_black,pencil,[0.7],3711,11,,
887,condition1,wooden,tahta,spoon_wooden_clean,spoon,[0.09],5464,12,,
887,condition1,long,uzun,pencil_long_black,pencil,[0.76],3491,13,,
887,condition1,bearded,sakallı,man_old_bearded,man,[0.16],4021,14,,
887,condition1,low,alçak,table_metal_low,table,[0.85],2841,15,,
887,condition1,clean-shaven,sakalsız,man_old_cleanshaven,man,[0.16],3532,16,,
887,condition1,open,açık,box_open_cardboard,box,[0.16],5159,17,,
887,condition1,fat,şişman,woman2_happy_fat,woman,[0.8],3642,18,,
887,condition1,spotted,benekli,frog_spotted_green,frog,[0.17],4118,19,,
887,condition1,round,yuvarlak,earring_big_round,earring,[0.15],5639,20,,
887,condition1,brown,kahverengi,hair_curly_brown,hair,[0.46],11208,21,,
887,condition1,closed,kapalı,box_closed_cardboard,box,[0.16],3673,22,,
887,condition1,straight,düz,hair_straight_blond,hair,[0.2],4629,23,,
887,condition1,colored,renkli,picture_colored_rectangular,picture,[0.12],3346,24,,
887,condition1,rectangular,dikdörtgen,picture_bw_rectangular,picture,[0.07],3066,25,,
887,condition1,triangular,üçgen,earring_big_triangular,earring,[0.11],3177,26,,
887,condition1,blond,sarı,hair_curly_blonde,hair,[0.13],5005,27,,
887,condition1,big,büyük,bottle_glass_big,bottle,[0.71],5417,28,,
887,condition1,sad,mutsuz,woman_old_sad,woman,[0.79],4548,29,,
887,condition1,glossy,parlak,nails_black_glossy,nails,[0.1],3929,30,,
887,condition1,cardboard,karton,box_closed_cardboard,box,[0.1],4022,31,,
887,condition1,striped,çizgili,frog_striped_green,frog,[0.08],2544,32,,
887,condition1,black,siyah,nails_black_glossy,nails,[0.09],2435,33,,
887,condition1,glasses-wearing,gözlüklü,man2_bearded_glassed,man,[0.13],4710,34,,
887,condition1,matte,mat,nails_black_matte,nails,[0.11],3172,35,,
887,condition1,happy,mutlu,woman_old_happy,woman,[0.11],3524,36,,
887,condition1,curly,kıvırcık,hair_curly_blonde,hair,[0.1],2130,37,,
887,condition1,small,küçük,bottle_glass_small,bottle,[0.72],3807,38,,
887,condition1,metal,metal,spoon_metal_clean,spoon,[0.07],4327,39,,
887,condition1,dirty,kirli,spoon_metal_dirty,spoon,[0.14],4090,40,,
887,condition1,young,genç,man_young_bearded,man,[0.75],3245,41,,
887,condition1,black and white,siyah beyaz,picture_bw_rectangular,picture,[0.1],3440,42,,
887,condition1,skinny,zayıf,woman2_happy_skinny,woman,[0.75],2876,43,,
887,condition1,glass,cam,bottle_glass_big,bottle,[0.07],5120,44,,
887,condition1,red,kırmızı,frog_spotted_red,frog,[0.08],3886,45,,
887,condition1,hat-wearing,şapkalı,man2_bearded_hatted,man,[0.06],4445,46,,
887,condition1,mustache-touting,bıyıklı,man2_mustached_glassed,man,[0.1],3894,47,,
887,condition1,plastic,plastik,bottle_plastic_big,bottle,[0.08],2910,48,,
898,condition1,,,,beyaz,beyaz,0,1,bot_check,
898,condition1,mustache-touting,bıyıklı,man2_mustached_glassed,man,[0.02],34537,3,,
898,condition1,green,yeşil,frog_spotted_green,frog,[1],8419,4,,
898,condition1,rectangular,dikdörtgen,picture_bw_rectangular,picture,[0],6382,5,,
898,condition1,open,açık,box_open_cardboard,box,[0],5767,6,,
898,condition1,long,uzun,pencil_long_black,pencil,[0.73],3509,7,,
898,condition1,triangular,üçgen,earring_big_triangular,earring,[0],3108,8,,
898,condition1,brown,kahverengi,hair_curly_brown,hair,[0.02],8460,9,,
898,condition1,black,siyah,nails_black_glossy,nails,[0.01],3667,10,,
898,condition1,big,büyük,bottle_glass_big,bottle,[0.27],2676,11,,
898,condition1,clean,temiz,spoon_metal_clean,spoon,[0.44],4979,12,,
898,condition1,clean-shaven,sakalsız,man_old_cleanshaven,man,[0],3460,13,,
898,condition1,curly,kıvırcık,hair_curly_blonde,hair,[0],2558,14,,
898,condition1,old,yaşlı,man_old_bearded,man,[0.3],3759,15,,
898,condition1,closed,kapalı,box_closed_cardboard,box,[0],2940,16,,
898,condition1,low,alçak,table_metal_low,table,[0.15],3127,17,,
898,condition1,young,genç,man_young_bearded,man,[0.15],2687,18,,
898,condition1,short,kısa,pencil_short_black,pencil,[0.2],2640,19,,
898,condition1,red,kırmızı,frog_spotted_red,frog,[0.01],2861,20,,
898,condition1,cardboard,karton,box_closed_cardboard,box,[0.01],3774,21,,
898,condition1,bearded,sakallı,man_old_bearded,man,[0],217692,22,,
898,condition1,plastic,plastik,bottle_plastic_big,bottle,[0],4210,23,,
898,condition1,hat-wearing,şapkalı,man2_bearded_hatted,man,[0],2550,24,,
898,condition1,wet,ıslak,shorts_wet_green,shorts,[0],2605,25,,
898,condition1,wooden,tahta,spoon_wooden_clean,spoon,[0.11],4627,26,,
898,condition1,matte,mat,nails_black_matte,nails,[0],2870,27,,
898,condition1,glossy,parlak,nails_black_glossy,nails,[0.14],3915,28,,
898,condition1,metal,metal,spoon_metal_clean,spoon,[0.23],3158,29,,
898,condition1,blue,mavi,pencil_long_blue,pencil,[0.21],1591,30,,
898,condition1,colored,renkli,picture_colored_rectangular,picture,[0.1],1086,31,,
898,condition1,fat,şişman,woman2_happy_fat,woman,[0.31],947,32,,
898,condition1,dirty,kirli,spoon_metal_dirty,spoon,[0.04],1108,33,,
898,condition1,sad,mutsuz,woman_old_sad,woman,[0.63],957,34,,
898,condition1,square,kare,picture_bw_square,picture,[0.01],3696,35,,
898,condition1,dry,kuru,shorts_dry_green,shorts,[0],2814,36,,
898,condition1,skinny,zayıf,woman2_happy_skinny,woman,[0.23],4008,37,,
898,condition1,spotted,benekli,frog_spotted_green,frog,[0],2242,38,,
898,condition1,glasses-wearing,gözlüklü,man2_bearded_glassed,man,[0],1976,39,,
898,condition1,happy,mutlu,woman_old_happy,woman,[0.99],2854,40,,
898,condition1,small,küçük,bottle_glass_small,bottle,[0.17],2841,41,,
898,condition1,blond,sarı,hair_curly_blonde,hair,[0],2272,42,,
898,condition1,black and white,siyah beyaz,picture_bw_rectangular,picture,[0],1853,43,,
898,condition1,straight,düz,hair_straight_blond,hair,[0],1572,44,,
898,condition1,high,yüksek,table_metal_high,table,[0.12],2468,45,,
898,condition1,glass,cam,bottle_glass_big,bottle,[0],4622,46,,
898,condition1,round,yuvarlak,earring_big_round,earring,[0],3174,47,,
898,condition1,striped,çizgili,frog_striped_green,frog,[0],1930,48,,
927,condition1,,,,beyaz,Beyaz,0,1,bot_check,
927,condition1,old,yaşlı,man_old_bearded,man,[1],12825,3,,
927,condition1,curly,kıvırcık,hair_curly_blonde,hair,[0.76],6326,4,,
927,condition1,dirty,kirli,spoon_metal_dirty,spoon,[0.33],10834,5,,
927,condition1,glasses-wearing,gözlüklü,man2_bearded_glassed,man,[0.01],5230,6,,
927,condition1,blond,sarı,hair_curly_blonde,hair,[0.12],4375,7,,
927,condition1,wet,ıslak,shorts_wet_green,shorts,[0.12],6820,8,,
927,condition1,glossy,parlak,nails_black_glossy,nails,[0.56],8474,9,,
927,condition1,black,siyah,nails_black_glossy,nails,[0.13],7373,10,,
927,condition1,wooden,tahta,spoon_wooden_clean,spoon,[0],4097,11,,
927,condition1,happy,mutlu,woman_old_happy,woman,[0.7],4538,12,,
927,condition1,small,küçük,bottle_glass_small,bottle,[0.88],3482,13,,
927,condition1,cardboard,karton,box_closed_cardboard,box,[0.11],5178,14,,
927,condition1,sad,mutsuz,woman_old_sad,woman,[0.23],9106,15,,
927,condition1,round,yuvarlak,earring_big_round,earring,[0.06],5692,16,,
927,condition1,clean,temiz,spoon_metal_clean,spoon,[0.24],10365,17,,
927,condition1,glass,cam,bottle_glass_big,bottle,[0.02],3149,18,,
927,condition1,short,kısa,pencil_short_black,pencil,[0.76],3137,19,,
927,condition1,bearded,sakallı,man_old_bearded,man,[0],3906,20,,
927,condition1,colored,renkli,picture_colored_rectangular,picture,[0.02],3930,21,,
927,condition1,mustache-touting,bıyıklı,man2_mustached_glassed,man,[0.02],3098,22,,
927,condition1,striped,çizgili,frog_striped_green,frog,[0],4794,23,,
927,condition1,blue,mavi,pencil_long_blue,pencil,[0.23],5984,24,,
927,condition1,open,açık,box_open_cardboard,box,[0.01],4008,25,,
927,condition1,long,uzun,pencil_long_black,pencil,[0.76],3308,26,,
927,condition1,fat,şişman,woman2_happy_fat,woman,[0.85],4097,27,,
927,condition1,skinny,zayıf,woman2_happy_skinny,woman,[0.6],3937,28,,
927,condition1,brown,kahverengi,hair_curly_brown,hair,[0.51],7207,29,,
927,condition1,red,kırmızı,frog_spotted_red,frog,[0.21],3779,30,,
927,condition1,metal,metal,spoon_metal_clean,spoon,[0.01],3673,31,,
927,condition1,plastic,plastik,bottle_plastic_big,bottle,[0.16],4474,32,,
927,condition1,black and white,siyah beyaz,picture_bw_rectangular,picture,[0.01],3905,33,,
927,condition1,green,yeşil,frog_spotted_green,frog,[0.09],4074,34,,
927,condition1,young,genç,man_young_bearded,man,[0.73],3193,35,,
927,condition1,hat-wearing,şapkalı,man2_bearded_hatted,man,[0],3698,36,,
927,condition1,low,alçak,table_metal_low,table,[0.66],6246,37,,
927,condition1,high,yüksek,table_metal_high,table,[0.68],2669,38,,
927,condition1,dry,kuru,shorts_dry_green,shorts,[0.1],3122,39,,
927,condition1,spotted,benekli,frog_spotted_green,frog,[0.02],3716,40,,
927,condition1,square,kare,picture_bw_square,picture,[0.12],6588,41,,
927,condition1,straight,düz,hair_straight_blond,hair,[0.16],5778,42,,
927,condition1,clean-shaven,sakalsız,man_old_cleanshaven,man,[0.01],5056,43,,
927,condition1,triangular,üçgen,earring_big_triangular,earring,[0.01],3370,44,,
927,condition1,matte,mat,nails_black_matte,nails,[0.49],2875,45,,
927,condition1,big,büyük,bottle_glass_big,bottle,[0.76],3034,46,,
927,condition1,rectangular,dikdörtgen,picture_bw_rectangular,picture,[0.26],5224,47,,
927,condition1,closed,kapalı,box_closed_cardboard,box,[0.01],3034,48,,
964,condition1,,,,beyaz,Icecek,0,1,bot_check,
964,condition1,,,,beyaz,Beyaz,0,1,bot_check,
964,condition1,green,yeşil,frog_spotted_green,frog,[0.02],22214,3,,
964,condition1,plastic,plastik,bottle_plastic_big,bottle,[0.05],5489,4,,
964,condition1,skinny,zayıf,woman2_happy_skinny,woman,[0.04],4425,5,,
964,condition1,dirty,kirli,spoon_metal_dirty,spoon,[0.06],3858,6,,
964,condition1,long,uzun,pencil_long_black,pencil,[0.2],5184,7,,
964,condition1,low,alçak,table_metal_low,table,[0.36],5867,8,,
964,condition1,cardboard,karton,box_closed_cardboard,box,[0.03],4413,9,,
964,condition1,dry,kuru,shorts_dry_green,shorts,[0.07],6036,10,,
964,condition1,round,yuvarlak,earring_big_round,earring,[0.03],3833,11,,
964,condition1,wooden,tahta,spoon_wooden_clean,spoon,[0.05],3966,12,,
964,condition1,young,genç,man_young_bearded,man,[0.23],5550,13,,
964,condition1,striped,çizgili,frog_striped_green,frog,[0.03],4217,14,,
964,condition1,matte,mat,nails_black_matte,nails,[0.06],5283,15,,
964,condition1,high,yüksek,table_metal_high,table,[0.03],3234,16,,
964,condition1,glasses-wearing,gözlüklü,man2_bearded_glassed,man,[0.05],8938,17,,
964,condition1,triangular,üçgen,earring_big_triangular,earring,[0.02],3746,18,,
964,condition1,glossy,parlak,nails_black_glossy,nails,[0.02],2667,19,,
964,condition1,clean-shaven,sakalsız,man_old_cleanshaven,man,[0.04],6565,20,,
964,condition1,small,küçük,bottle_glass_small,bottle,[0.03],5251,21,,
964,condition1,big,büyük,bottle_glass_big,bottle,[0.05],2816,22,,
964,condition1,closed,kapalı,box_closed_cardboard,box,[0.06],2716,23,,
964,condition1,clean,temiz,spoon_metal_clean,spoon,[0.04],3616,24,,
964,condition1,brown,kahverengi,hair_curly_brown,hair,[0.05],3867,25,,
964,condition1,rectangular,dikdörtgen,picture_bw_rectangular,picture,[0.05],3814,26,,
964,condition1,bearded,sakallı,man_old_bearded,man,[0.05],2670,27,,
964,condition1,black,siyah,nails_black_glossy,nails,[0.06],3249,28,,
964,condition1,old,yaşlı,man_old_bearded,man,[0.04],3149,29,,
964,condition1,short,kısa,pencil_short_black,pencil,[0.05],3500,30,,
964,condition1,spotted,benekli,frog_spotted_green,frog,[0.01],3016,31,,
964,condition1,open,açık,box_open_cardboard,box,[0.03],3200,32,,
964,condition1,happy,mutlu,woman_old_happy,woman,[0.92],6966,33,,
964,condition1,black and white,siyah beyaz,picture_bw_rectangular,picture,[0.05],4183,34,,
964,condition1,metal,metal,spoon_metal_clean,spoon,[0.03],3083,35,,
964,condition1,curly,kıvırcık,hair_curly_blonde,hair,[0.08],2415,36,,
964,condition1,hat-wearing,şapkalı,man2_bearded_hatted,man,[0.03],2683,37,,
964,condition1,red,kırmızı,frog_spotted_red,frog,[0.06],2684,38,,
964,condition1,blue,mavi,pencil_long_blue,pencil,[0.05],2465,39,,
964,condition1,fat,şişman,woman2_happy_fat,woman,[0.04],2652,40,,
964,condition1,sad,mutsuz,woman_old_sad,woman,[0.95],3632,41,,
964,condition1,wet,ıslak,shorts_wet_green,shorts,[0.02],2902,42,,
964,condition1,glass,cam,bottle_glass_big,bottle,[0.02],3550,43,,
964,condition1,blond,sarı,hair_curly_blonde,hair,[0],2899,44,,
964,condition1,square,kare,picture_bw_square,picture,[0.06],3200,45,,
964,condition1,mustache-touting,bıyıklı,man2_mustached_glassed,man,[0.06],2581,46,,
964,condition1,straight,düz,hair_straight_blond,hair,[0.05],2465,47,,
964,condition1,colored,renkli,picture_colored_rectangular,picture,[0.05],2386,48,,
906,condition1,,,,beyaz,Beyaz,0,1,bot_check,
906,condition1,colored,renkli,picture_colored_rectangular,picture,[0.87],11951,3,,
906,condition1,brown,kahverengi,hair_curly_brown,hair,[0.33],4630,4,,
906,condition1,glass,cam,bottle_glass_big,bottle,[0.14],22448,5,,
906,condition1,wooden,tahta,spoon_wooden_clean,spoon,[0.17],3728,6,,
906,condition1,low,alçak,table_metal_low,table,[0.86],6031,7,,
906,condition1,striped,çizgili,frog_striped_green,frog,[0.12],2208,8,,
906,condition1,high,yüksek,table_metal_high,table,[0.8],1976,9,,
906,condition1,rectangular,dikdörtgen,picture_bw_rectangular,picture,[0],1567,10,,
906,condition1,happy,mutlu,woman_old_happy,woman,[1],4008,11,,
906,condition1,black,siyah,nails_black_glossy,nails,[0.53],2648,12,,
906,condition1,big,büyük,bottle_glass_big,bottle,[0.84],2496,13,,
906,condition1,triangular,üçgen,earring_big_triangular,earring,[0],2056,14,,
906,condition1,curly,kıvırcık,hair_curly_blonde,hair,[0.44],4336,15,,
906,condition1,clean-shaven,sakalsız,man_old_cleanshaven,man,[0.59],2904,16,,
906,condition1,mustache-touting,bıyıklı,man2_mustached_glassed,man,[0.64],1696,17,,
906,condition1,blond,sarı,hair_curly_blonde,hair,[0.38],2992,18,,
906,condition1,green,yeşil,frog_spotted_green,frog,[0.35],2136,19,,
906,condition1,wet,ıslak,shorts_wet_green,shorts,[0.78],2225,20,,
906,condition1,long,uzun,pencil_long_black,pencil,[0.72],1887,21,,
906,condition1,plastic,plastik,bottle_plastic_big,bottle,[0.09],6072,22,,
906,condition1,round,yuvarlak,earring_big_round,earring,[0],1950,23,,
906,condition1,hat-wearing,şapkalı,man2_bearded_hatted,man,[0],2808,24,,
906,condition1,spotted,benekli,frog_spotted_green,frog,[0.18],4928,25,,
906,condition1,black and white,siyah beyaz,picture_bw_rectangular,picture,[0.19],2320,26,,
906,condition1,metal,metal,spoon_metal_clean,spoon,[0.04],2544,27,,
906,condition1,matte,mat,nails_black_matte,nails,[0.7],2287,28,,
906,condition1,dirty,kirli,spoon_metal_dirty,spoon,[0.88],2048,29,,
906,condition1,red,kırmızı,frog_spotted_red,frog,[0.15],2193,30,,
906,condition1,short,kısa,pencil_short_black,pencil,[0.82],1711,31,,
906,condition1,fat,şişman,woman2_happy_fat,woman,[0.98],10809,32,,
906,condition1,open,açık,box_open_cardboard,box,[0.1],2543,33,,
906,condition1,square,kare,picture_bw_square,picture,[0],3473,34,,
906,condition1,glasses-wearing,gözlüklü,man2_bearded_glassed,man,[0.12],89838,35,,
906,condition1,young,genç,man_young_bearded,man,[0.95],2147,36,,
906,condition1,sad,mutsuz,woman_old_sad,woman,[1],1382,37,,
906,condition1,bearded,sakallı,man_old_bearded,man,[0.11],1847,38,,
906,condition1,glossy,parlak,nails_black_glossy,nails,[0.88],1609,39,,
906,condition1,dry,kuru,shorts_dry_green,shorts,[0.66],2191,40,,
906,condition1,cardboard,karton,box_closed_cardboard,box,[0.05],2800,41,,
906,condition1,straight,düz,hair_straight_blond,hair,[0.84],1600,42,,
906,condition1,closed,kapalı,box_closed_cardboard,box,[0.09],2338,43,,
906,condition1,skinny,zayıf,woman2_happy_skinny,woman,[0.94],1766,44,,
906,condition1,small,küçük,bottle_glass_small,bottle,[0.83],1873,45,,
906,condition1,old,yaşlı,man_old_bearded,man,[0.87],1632,46,,
906,condition1,blue,mavi,pencil_long_blue,pencil,[0.86],2479,47,,
906,condition1,clean,temiz,spoon_metal_clean,spoon,[0.86],2546,48,,
824,condition1,,,,beyaz,beyaz,0,1,bot_check,
824,condition1,big,büyük,bottle_glass_big,bottle,[0.79],22099,3,,
824,condition1,open,açık,box_open_cardboard,box,[0],8596,4,,
824,condition1,happy,mutlu,woman_old_happy,woman,[1],8015,5,,
824,condition1,wet,ıslak,shorts_wet_green,shorts,[0],5416,6,,
824,condition1,green,yeşil,frog_spotted_green,frog,[0.14],7859,7,,
824,condition1,wooden,tahta,spoon_wooden_clean,spoon,[0.15],22672,8,,
824,condition1,small,küçük,bottle_glass_small,bottle,[0.84],8767,9,,
824,condition1,rectangular,dikdörtgen,picture_bw_rectangular,picture,[0],6564,10,,
824,condition1,high,yüksek,table_metal_high,table,[0.76],4636,11,,
824,condition1,triangular,üçgen,earring_big_triangular,earring,[0],7007,12,,
824,condition1,young,genç,man_young_bearded,man,[0.67],10617,13,,
824,condition1,glossy,parlak,nails_black_glossy,nails,[0.32],8896,14,,
824,condition1,plastic,plastik,bottle_plastic_big,bottle,[0.18],8834,15,,
824,condition1,round,yuvarlak,earring_big_round,earring,[0],6348,16,,
824,condition1,fat,şişman,woman2_happy_fat,woman,[0.72],7616,17,,
824,condition1,hat-wearing,şapkalı,man2_bearded_hatted,man,[0],6319,18,,
824,condition1,blond,sarı,hair_curly_blonde,hair,[0.18],13108,19,,
824,condition1,black,siyah,nails_black_glossy,nails,[0],4556,20,,
824,condition1,glasses-wearing,gözlüklü,man2_bearded_glassed,man,[0],3512,21,,
824,condition1,clean-shaven,sakalsız,man_old_cleanshaven,man,[0],3334,22,,
824,condition1,closed,kapalı,box_closed_cardboard,box,[0],2821,23,,
824,condition1,low,alçak,table_metal_low,table,[0.76],5634,24,,
824,condition1,dry,kuru,shorts_dry_green,shorts,[0],5601,25,,
824,condition1,sad,mutsuz,woman_old_sad,woman,[1],3960,26,,
824,condition1,mustache-touting,bıyıklı,man2_mustached_glassed,man,[0],3267,27,,
824,condition1,cardboard,karton,box_closed_cardboard,box,[0.12],8831,28,,
824,condition1,spotted,benekli,frog_spotted_green,frog,[0],4629,29,,
824,condition1,red,kırmızı,frog_spotted_red,frog,[0.08],9046,30,,
824,condition1,bearded,sakallı,man_old_bearded,man,[0.23],22837,31,,
824,condition1,long,uzun,pencil_long_black,pencil,[0.74],6448,32,,
824,condition1,dirty,kirli,spoon_metal_dirty,spoon,[0.08],13426,33,,
824,condition1,colored,renkli,picture_colored_rectangular,picture,[0],6233,34,,
824,condition1,short,kısa,pencil_short_black,pencil,[0.8],3140,35,,
824,condition1,striped,çizgili,frog_striped_green,frog,[0.26],3785,36,,
824,condition1,matte,mat,nails_black_matte,nails,[0.16],12905,37,,
824,condition1,blue,mavi,pencil_long_blue,pencil,[0.08],4401,38,,
824,condition1,straight,düz,hair_straight_blond,hair,[0.08],8785,39,,
824,condition1,curly,kıvırcık,hair_curly_blonde,hair,[0],6743,40,,
824,condition1,old,yaşlı,man_old_bearded,man,[0.64],4571,41,,
824,condition1,brown,kahverengi,hair_curly_brown,hair,[0.33],11910,42,,
824,condition1,clean,temiz,spoon_metal_clean,spoon,[0.14],8539,43,,
824,condition1,metal,metal,spoon_metal_clean,spoon,[0.06],4890,44,,
824,condition1,black and white,siyah beyaz,picture_bw_rectangular,picture,[0],4291,45,,
824,condition1,skinny,zayıf,woman2_happy_skinny,woman,[0.63],5680,46,,
824,condition1,glass,cam,bottle_glass_big,bottle,[0.09],6130,47,,
824,condition1,square,kare,picture_bw_square,picture,[0],3784,48,,
