workerid,proliferate.condition,adj1,adj2,label,left_end,object,response,right_end,rt,slide_number_in_experiment,utterance,catch_trials,subject_information.age,subject_information.comments,subject_information.education,subject_information.enjoyment,subject_information.gender,subject_information.language,system.Browser,system.OS,system.screenH,system.screenW,time_in_minutes,error
53,condition1,,,,,Jennifer,Jennifer,,0,1,bot_check,[],,,-1,-1,,,Chrome,Mac,900,1440,4.267883333333334,
53,condition1,wooden,high,table_wood_high,"""wooden high table""",table,[0.82],"""high wooden table""",8077,3,,[],,,-1,-1,,,Chrome,Mac,900,1440,4.267883333333334,
53,condition1,mustache-touting,hat-wearing,man2_mustached_hatted,"""hat-wearing mustache-touting man""",man,[0.12],"""mustache-touting hat-wearing man""",5311,4,,[],,,-1,-1,,,Chrome,Mac,900,1440,4.267883333333334,
53,condition1,bearded,glasses-wearing,man2_bearded_glassed,"""glasses-wearing bearded man""",man,[0.12],"""bearded glasses-wearing man""",4500,5,,[],,,-1,-1,,,Chrome,Mac,900,1440,4.267883333333334,
53,condition1,old,happy,woman_old_happy,"""happy old woman""",woman,[0.12],"""old happy woman""",3051,6,,[],,,-1,-1,,,Chrome,Mac,900,1440,4.267883333333334,
53,condition1,striped,green,frog_striped_green,"""green striped frog""",frog,[0.89],"""striped green frog""",4995,7,,[],,,-1,-1,,,Chrome,Mac,900,1440,4.267883333333334,
53,condition1,short,black,pencil_short_black,"""short black pencil""",pencil,[0.12],"""black short pencil""",3483,8,,[],,,-1,-1,,,Chrome,Mac,900,1440,4.267883333333334,
53,condition1,black,matte,nails_black_matte,"""black matte nails""",nails,[0.88],"""matte black nails""",3120,9,,[],,,-1,-1,,,Chrome,Mac,900,1440,4.267883333333334,
53,condition1,old,clean-shaven,man_old_cleanshaven,"""old clean-shaven man""",man,[0.89],"""clean-shaven old man""",4292,10,,[],,,-1,-1,,,Chrome,Mac,900,1440,4.267883333333334,
53,condition1,sad,skinny,woman2_sad_skinny,"""sad skinny woman""",woman,[0.1],"""skinny sad woman""",3346,11,,[],,,-1,-1,,,Chrome,Mac,900,1440,4.267883333333334,
53,condition1,colored,square,picture_colored_square,"""square colored picture""",picture,[0.13],"""colored square picture""",4068,12,,[],,,-1,-1,,,Chrome,Mac,900,1440,4.267883333333334,
53,condition1,old,sad,woman_old_sad,"""sad old woman""",woman,[0.1],"""old sad woman""",6099,13,,[],,,-1,-1,,,Chrome,Mac,900,1440,4.267883333333334,
53,condition1,straight,blond,hair_straight_blonde,"""straight blond hair""",hair,[0.1],"""blond straight hair""",3183,14,,[],,,-1,-1,,,Chrome,Mac,900,1440,4.267883333333334,
53,condition1,metal,low,table_metal_low,"""metal low table""",table,[0.91],"""low metal table""",3611,15,,[],,,-1,-1,,,Chrome,Mac,900,1440,4.267883333333334,
53,condition1,glass,small,bottle_glass_small,"""glass small bottle""",bottle,[0.9],"""small glass bottle""",3698,16,,[],,,-1,-1,,,Chrome,Mac,900,1440,4.267883333333334,
53,condition1,metal,dirty,spoon_metal_dirty,"""metal dirty spoon""",spoon,[0.9],"""dirty metal spoon""",3579,17,,[],,,-1,-1,,,Chrome,Mac,900,1440,4.267883333333334,
53,condition1,long,blue,pencil_long_blue,"""blue long pencil""",pencil,[0.9],"""long blue pencil""",3725,18,,[],,,-1,-1,,,Chrome,Mac,900,1440,4.267883333333334,
53,condition1,curly,blond,hair_curly_blonde,"""blond curly hair""",hair,[0.87],"""curly blond hair""",2902,19,,[],,,-1,-1,,,Chrome,Mac,900,1440,4.267883333333334,
53,condition1,dry,red,shorts_dry_red,"""red dry shorts""",shorts,[0.91],"""dry red shorts""",3187,20,,[],,,-1,-1,,,Chrome,Mac,900,1440,4.267883333333334,
53,condition1,young,happy,woman_young_happy,"""young happy woman""",woman,[0.92],"""happy young woman""",3076,21,,[],,,-1,-1,,,Chrome,Mac,900,1440,4.267883333333334,
53,condition1,small,triangular,earring_small_triangular,"""triangular small earring""",earring,[0.91],"""small triangular earring""",4529,22,,[],,,-1,-1,,,Chrome,Mac,900,1440,4.267883333333334,
53,condition1,closed,cardboard,box_closed_cardboard,"""cardboard closed box""",box,[0.9],"""closed cardboard box""",4195,23,,[],,,-1,-1,,,Chrome,Mac,900,1440,4.267883333333334,
53,condition1,open,wooden,box_open_wood,"""wooden open box""",box,[0.93],"""open wooden box""",3691,24,,[],,,-1,-1,,,Chrome,Mac,900,1440,4.267883333333334,
53,condition1,young,clean-shaven,man_young_cleanshaven,"""clean-shaven young man""",man,[0.1],"""young clean-shaven man""",3286,25,,[],,,-1,-1,,,Chrome,Mac,900,1440,4.267883333333334,
53,condition1,wooden,dirty,spoon_wooden_dirty,"""dirty wooden spoon""",spoon,[0.08],"""wooden dirty spoon""",2715,26,,[],,,-1,-1,,,Chrome,Mac,900,1440,4.267883333333334,
53,condition1,young,bearded,man_young_bearded,"""young bearded man""",man,[0.89],"""bearded young man""",3371,27,,[],,,-1,-1,,,Chrome,Mac,900,1440,4.267883333333334,
53,condition1,straight,brown,hair_straight_brown,"""brown straight hair""",hair,[0.91],"""straight brown hair""",2859,28,,[],,,-1,-1,,,Chrome,Mac,900,1440,4.267883333333334,
53,condition1,happy,skinny,woman2_happy_skinny,"""happy skinny woman""",woman,[0.06],"""skinny happy woman""",3248,29,,[],,,-1,-1,,,Chrome,Mac,900,1440,4.267883333333334,
53,condition1,black and white,rectangular,picture_bw_rectangular,"""rectangular black and white picture""",picture,[0.11],"""black and white rectangular picture""",4618,30,,[],,,-1,-1,,,Chrome,Mac,900,1440,4.267883333333334,
53,condition1,plastic,big,bottle_plastic_big,"""plastic big bottle""",bottle,[0.93],"""big plastic bottle""",3779,31,,[],,,-1,-1,,,Chrome,Mac,900,1440,4.267883333333334,
53,condition1,glass,big,bottle_glass_big,"""big glass bottle""",bottle,[0.04],"""glass big bottle""",2004,32,,[],,,-1,-1,,,Chrome,Mac,900,1440,4.267883333333334,
53,condition1,sad,fat,woman2_sad_fat,"""sad fat woman""",woman,[0.12],"""fat sad woman""",4305,33,,[],,,-1,-1,,,Chrome,Mac,900,1440,4.267883333333334,
53,condition1,plastic,small,bottle_plastic_small,"""plastic small bottle""",bottle,[0.93],"""small plastic bottle""",2873,34,,[],,,-1,-1,,,Chrome,Mac,900,1440,4.267883333333334,
53,condition1,mustache-touting,glasses-wearing,man2_mustached_glassed,"""mustache-touting glasses-wearing man""",man,[0.37],"""glasses-wearing mustache-touting man""",6190,35,,[],,,-1,-1,,,Chrome,Mac,900,1440,4.267883333333334,
53,condition1,red,glossy,nails_red_glossy,"""glossy red nails""",nails,[0.08],"""red glossy nails""",3220,36,,[],,,-1,-1,,,Chrome,Mac,900,1440,4.267883333333334,
53,condition1,wooden,low,table_wood_low,"""wooden low table""",table,[0.89],"""low wooden table""",2415,37,,[],,,-1,-1,,,Chrome,Mac,900,1440,4.267883333333334,
53,condition1,big,round,earring_big_round,"""big round earring""",earring,[0.09],"""round big earring""",3084,38,,[],,,-1,-1,,,Chrome,Mac,900,1440,4.267883333333334,
53,condition1,short,blue,pencil_short_blue,"""short blue pencil""",pencil,[0.07],"""blue short pencil""",2994,39,,[],,,-1,-1,,,Chrome,Mac,900,1440,4.267883333333334,
53,condition1,black,glossy,nails_black_glossy,"""glossy black nails""",nails,[0.11],"""black glossy nails""",2551,40,,[],,,-1,-1,,,Chrome,Mac,900,1440,4.267883333333334,
53,condition1,young,sad,woman_young_sad,"""young sad woman""",woman,[0.92],"""sad young woman""",2507,41,,[],,,-1,-1,,,Chrome,Mac,900,1440,4.267883333333334,
53,condition1,wet,red,shorts_wet_red,"""red wet shorts""",shorts,[0.89],"""wet red shorts""",2440,42,,[],,,-1,-1,,,Chrome,Mac,900,1440,4.267883333333334,
53,condition1,metal,clean,spoon_metal_clean,"""clean metal spoon""",spoon,[0.09],"""metal clean spoon""",3002,43,,[],,,-1,-1,,,Chrome,Mac,900,1440,4.267883333333334,
53,condition1,striped,red,frog_striped_red,"""red striped frog""",frog,[0.89],"""striped red frog""",3148,44,,[],,,-1,-1,,,Chrome,Mac,900,1440,4.267883333333334,
53,condition1,old,bearded,man_old_bearded,"""old bearded man""",man,[0.86],"""bearded old man""",4147,45,,[],,,-1,-1,,,Chrome,Mac,900,1440,4.267883333333334,
53,condition1,big,triangular,earring_big_triangular,"""triangular big earring""",earring,[0.89],"""big triangular earring""",5083,46,,[],,,-1,-1,,,Chrome,Mac,900,1440,4.267883333333334,
53,condition1,red,matte,nails_red_matte,"""red matte nails""",nails,[0.88],"""matte red nails""",3215,47,,[],,,-1,-1,,,Chrome,Mac,900,1440,4.267883333333334,
53,condition1,open,cardboard,box_open_cardboard,"""cardboard open box""",box,[0.85],"""open cardboard box""",3019,48,,[],,,-1,-1,,,Chrome,Mac,900,1440,4.267883333333334,
53,condition1,small,round,earring_small_round,"""small round earring""",earring,[0.11],"""round small earring""",2379,49,,[],,,-1,-1,,,Chrome,Mac,900,1440,4.267883333333334,
53,condition1,happy,fat,woman2_happy_fat,"""happy fat woman""",woman,[0.09],"""fat happy woman""",3918,50,,[],,,-1,-1,,,Chrome,Mac,900,1440,4.267883333333334,
53,condition1,long,black,pencil_long_black,"""long black pencil""",pencil,[0.08],"""black long pencil""",3803,51,,[],,,-1,-1,,,Chrome,Mac,900,1440,4.267883333333334,
53,condition1,wooden,clean,spoon_wooden_clean,"""wooden clean spoon""",spoon,[0.86],"""clean wooden spoon""",2426,52,,[],,,-1,-1,,,Chrome,Mac,900,1440,4.267883333333334,
53,condition1,colored,rectangular,picture_colored_rectangular,"""rectangular colored picture""",picture,[0.1],"""colored rectangular picture""",3642,53,,[],,,-1,-1,,,Chrome,Mac,900,1440,4.267883333333334,
53,condition1,spotted,red,frog_spotted_red,"""red spotted frog""",frog,[0.73],"""spotted red frog""",6407,54,,[],,,-1,-1,,,Chrome,Mac,900,1440,4.267883333333334,
53,condition1,dry,green,shorts_dry_green,"""green dry shorts""",shorts,[0.88],"""dry green shorts""",33069,55,,[],,,-1,-1,,,Chrome,Mac,900,1440,4.267883333333334,
53,condition1,closed,wooden,box_closed_wood,"""closed wooden box""",box,[0.09],"""wooden closed box""",3666,56,,[],,,-1,-1,,,Chrome,Mac,900,1440,4.267883333333334,
53,condition1,black and white,square,picture_bw_square,"""black and white square picture""",picture,[0.89],"""square black and white picture""",4604,57,,[],,,-1,-1,,,Chrome,Mac,900,1440,4.267883333333334,
53,condition1,curly,brown,hair_curly_brown,"""curly brown hair""",hair,[0.11],"""brown curly hair""",2186,58,,[],,,-1,-1,,,Chrome,Mac,900,1440,4.267883333333334,
53,condition1,spotted,green,frog_spotted_green,"""spotted green frog""",frog,[0.92],"""green spotted frog""",2200,59,,[],,,-1,-1,,,Chrome,Mac,900,1440,4.267883333333334,
53,condition1,wet,green,shorts_wet_green,"""green wet shorts""",shorts,[0.88],"""wet green shorts""",2643,60,,[],,,-1,-1,,,Chrome,Mac,900,1440,4.267883333333334,
53,condition1,bearded,hat-wearing,man2_bearded_hatted,"""hat-wearing bearded man""",man,[0.89],"""bearded hat-wearing man""",3637,61,,[],,,-1,-1,,,Chrome,Mac,900,1440,4.267883333333334,
53,condition1,metal,high,table_metal_high,"""metal high table""",table,[0.91],"""high metal table""",2907,62,,[],,,-1,-1,,,Chrome,Mac,900,1440,4.267883333333334,
60,condition1,,,,,Elizabeth,,,0,1,bot_check,[],24,Thank you!,3,2,Male,English,Chrome,Linux,891,434,5.2732833333333335,
60,condition1,,,,,Elizabeth,Elizabeth,,0,1,bot_check,[],24,Thank you!,3,2,Male,English,Chrome,Linux,891,434,5.2732833333333335,
60,condition1,curly,blond,hair_curly_blonde,"""blond curly hair""",hair,[0.84],"""curly blond hair""",7917,3,,[],24,Thank you!,3,2,Male,English,Chrome,Linux,891,434,5.2732833333333335,
60,condition1,young,bearded,man_young_bearded,"""young bearded man""",man,[0.88],"""bearded young man""",5207,4,,[],24,Thank you!,3,2,Male,English,Chrome,Linux,891,434,5.2732833333333335,
60,condition1,sad,skinny,woman2_sad_skinny,"""skinny sad woman""",woman,[0.97],"""sad skinny woman""",4705,5,,[],24,Thank you!,3,2,Male,English,Chrome,Linux,891,434,5.2732833333333335,
60,condition1,short,black,pencil_short_black,"""short black pencil""",pencil,[0.04],"""black short pencil""",4631,6,,[],24,Thank you!,3,2,Male,English,Chrome,Linux,891,434,5.2732833333333335,
60,condition1,young,happy,woman_young_happy,"""happy young woman""",woman,[0.01],"""young happy woman""",4600,7,,[],24,Thank you!,3,2,Male,English,Chrome,Linux,891,434,5.2732833333333335,
60,condition1,red,matte,nails_red_matte,"""matte red nails""",nails,[0.03],"""red matte nails""",4020,8,,[],24,Thank you!,3,2,Male,English,Chrome,Linux,891,434,5.2732833333333335,
60,condition1,plastic,big,bottle_plastic_big,"""plastic big bottle""",bottle,[0.98],"""big plastic bottle""",3706,9,,[],24,Thank you!,3,2,Male,English,Chrome,Linux,891,434,5.2732833333333335,
60,condition1,glass,big,bottle_glass_big,"""glass big bottle""",bottle,[0.94],"""big glass bottle""",11284,10,,[],24,Thank you!,3,2,Male,English,Chrome,Linux,891,434,5.2732833333333335,
60,condition1,happy,skinny,woman2_happy_skinny,"""happy skinny woman""",woman,[0.04],"""skinny happy woman""",4873,11,,[],24,Thank you!,3,2,Male,English,Chrome,Linux,891,434,5.2732833333333335,
60,condition1,black,matte,nails_black_matte,"""black matte nails""",nails,[0.03],"""matte black nails""",3090,12,,[],24,Thank you!,3,2,Male,English,Chrome,Linux,891,434,5.2732833333333335,
60,condition1,red,glossy,nails_red_glossy,"""red glossy nails""",nails,[0.01],"""glossy red nails""",2552,13,,[],24,Thank you!,3,2,Male,English,Chrome,Linux,891,434,5.2732833333333335,
60,condition1,small,triangular,earring_small_triangular,"""small triangular earring""",earring,[0.04],"""triangular small earring""",8304,14,,[],24,Thank you!,3,2,Male,English,Chrome,Linux,891,434,5.2732833333333335,
60,condition1,small,round,earring_small_round,"""small round earring""",earring,[0.01],"""round small earring""",2543,15,,[],24,Thank you!,3,2,Male,English,Chrome,Linux,891,434,5.2732833333333335,
60,condition1,bearded,hat-wearing,man2_bearded_hatted,"""bearded hat-wearing man""",man,[0.93],"""hat-wearing bearded man""",8538,16,,[],24,Thank you!,3,2,Male,English,Chrome,Linux,891,434,5.2732833333333335,
60,condition1,wooden,clean,spoon_wooden_clean,"""wooden clean spoon""",spoon,[0.96],"""clean wooden spoon""",3683,17,,[],24,Thank you!,3,2,Male,English,Chrome,Linux,891,434,5.2732833333333335,
60,condition1,old,bearded,man_old_bearded,"""bearded old man""",man,[0.04],"""old bearded man""",4364,18,,[],24,Thank you!,3,2,Male,English,Chrome,Linux,891,434,5.2732833333333335,
60,condition1,young,clean-shaven,man_young_cleanshaven,"""clean-shaven young man""",man,[0.04],"""young clean-shaven man""",2699,19,,[],24,Thank you!,3,2,Male,English,Chrome,Linux,891,434,5.2732833333333335,
60,condition1,big,round,earring_big_round,"""big round earring""",earring,[0.02],"""round big earring""",3803,20,,[],24,Thank you!,3,2,Male,English,Chrome,Linux,891,434,5.2732833333333335,
60,condition1,metal,clean,spoon_metal_clean,"""clean metal spoon""",spoon,[0.01],"""metal clean spoon""",2236,21,,[],24,Thank you!,3,2,Male,English,Chrome,Linux,891,434,5.2732833333333335,
60,condition1,mustache-touting,hat-wearing,man2_mustached_hatted,"""mustache-touting hat-wearing man""",man,[0.03],"""hat-wearing mustache-touting man""",4214,22,,[],24,Thank you!,3,2,Male,English,Chrome,Linux,891,434,5.2732833333333335,
60,condition1,open,cardboard,box_open_cardboard,"""open cardboard box""",box,[0.04],"""cardboard open box""",3330,23,,[],24,Thank you!,3,2,Male,English,Chrome,Linux,891,434,5.2732833333333335,
60,condition1,big,triangular,earring_big_triangular,"""triangular big earring""",earring,[0.97],"""big triangular earring""",9576,24,,[],24,Thank you!,3,2,Male,English,Chrome,Linux,891,434,5.2732833333333335,
60,condition1,striped,green,frog_striped_green,"""green striped frog""",frog,[0.01],"""striped green frog""",3134,25,,[],24,Thank you!,3,2,Male,English,Chrome,Linux,891,434,5.2732833333333335,
60,condition1,closed,wooden,box_closed_wood,"""closed wooden box""",box,[0.05],"""wooden closed box""",4056,26,,[],24,Thank you!,3,2,Male,English,Chrome,Linux,891,434,5.2732833333333335,
60,condition1,wooden,dirty,spoon_wooden_dirty,"""dirty wooden spoon""",spoon,[0.01],"""wooden dirty spoon""",2690,27,,[],24,Thank you!,3,2,Male,English,Chrome,Linux,891,434,5.2732833333333335,
60,condition1,plastic,small,bottle_plastic_small,"""small plastic bottle""",bottle,[0.06],"""plastic small bottle""",3499,28,,[],24,Thank you!,3,2,Male,English,Chrome,Linux,891,434,5.2732833333333335,
60,condition1,metal,low,table_metal_low,"""low metal table""",table,[0.07],"""metal low table""",4917,29,,[],24,Thank you!,3,2,Male,English,Chrome,Linux,891,434,5.2732833333333335,
60,condition1,mustache-touting,glasses-wearing,man2_mustached_glassed,"""mustache-touting glasses-wearing man""",man,[0.95],"""glasses-wearing mustache-touting man""",10426,30,,[],24,Thank you!,3,2,Male,English,Chrome,Linux,891,434,5.2732833333333335,
60,condition1,colored,rectangular,picture_colored_rectangular,"""colored rectangular picture""",picture,[0.98],"""rectangular colored picture""",14464,31,,[],24,Thank you!,3,2,Male,English,Chrome,Linux,891,434,5.2732833333333335,
60,condition1,straight,blond,hair_straight_blonde,"""straight blond hair""",hair,[0.09],"""blond straight hair""",2948,32,,[],24,Thank you!,3,2,Male,English,Chrome,Linux,891,434,5.2732833333333335,
60,condition1,curly,brown,hair_curly_brown,"""brown curly hair""",hair,[0.97],"""curly brown hair""",3669,33,,[],24,Thank you!,3,2,Male,English,Chrome,Linux,891,434,5.2732833333333335,
60,condition1,wooden,low,table_wood_low,"""wooden low table""",table,[0.96],"""low wooden table""",4874,34,,[],24,Thank you!,3,2,Male,English,Chrome,Linux,891,434,5.2732833333333335,
60,condition1,young,sad,woman_young_sad,"""young sad woman""",woman,[0.98],"""sad young woman""",3625,35,,[],24,Thank you!,3,2,Male,English,Chrome,Linux,891,434,5.2732833333333335,
60,condition1,black and white,square,picture_bw_square,"""black and white square picture""",picture,[0.03],"""square black and white picture""",8457,36,,[],24,Thank you!,3,2,Male,English,Chrome,Linux,891,434,5.2732833333333335,
60,condition1,wooden,high,table_wood_high,"""wooden high table""",table,[0.95],"""high wooden table""",13008,37,,[],24,Thank you!,3,2,Male,English,Chrome,Linux,891,434,5.2732833333333335,
60,condition1,dry,green,shorts_dry_green,"""green dry shorts""",shorts,[1],"""dry green shorts""",3027,38,,[],24,Thank you!,3,2,Male,English,Chrome,Linux,891,434,5.2732833333333335,
60,condition1,sad,fat,woman2_sad_fat,"""fat sad woman""",woman,[0.93],"""sad fat woman""",5083,39,,[],24,Thank you!,3,2,Male,English,Chrome,Linux,891,434,5.2732833333333335,
60,condition1,happy,fat,woman2_happy_fat,"""fat happy woman""",woman,[0.95],"""happy fat woman""",3285,40,,[],24,Thank you!,3,2,Male,English,Chrome,Linux,891,434,5.2732833333333335,
60,condition1,old,sad,woman_old_sad,"""old sad woman""",woman,[0.94],"""sad old woman""",3661,41,,[],24,Thank you!,3,2,Male,English,Chrome,Linux,891,434,5.2732833333333335,
60,condition1,dry,red,shorts_dry_red,"""dry red shorts""",shorts,[0.02],"""red dry shorts""",2184,42,,[],24,Thank you!,3,2,Male,English,Chrome,Linux,891,434,5.2732833333333335,
60,condition1,short,blue,pencil_short_blue,"""blue short pencil""",pencil,[0.94],"""short blue pencil""",2691,43,,[],24,Thank you!,3,2,Male,English,Chrome,Linux,891,434,5.2732833333333335,
60,condition1,bearded,glasses-wearing,man2_bearded_glassed,"""bearded glasses-wearing man""",man,[0.04],"""glasses-wearing bearded man""",4167,44,,[],24,Thank you!,3,2,Male,English,Chrome,Linux,891,434,5.2732833333333335,
60,condition1,open,wooden,box_open_wood,"""wooden open box""",box,[0.93],"""open wooden box""",4365,45,,[],24,Thank you!,3,2,Male,English,Chrome,Linux,891,434,5.2732833333333335,
60,condition1,straight,brown,hair_straight_brown,"""brown straight hair""",hair,[1],"""straight brown hair""",3802,46,,[],24,Thank you!,3,2,Male,English,Chrome,Linux,891,434,5.2732833333333335,
60,condition1,black and white,rectangular,picture_bw_rectangular,"""black and white rectangular picture""",picture,[0.02],"""rectangular black and white picture""",5531,47,,[],24,Thank you!,3,2,Male,English,Chrome,Linux,891,434,5.2732833333333335,
60,condition1,metal,high,table_metal_high,"""high metal table""",table,[0.01],"""metal high table""",2763,48,,[],24,Thank you!,3,2,Male,English,Chrome,Linux,891,434,5.2732833333333335,
60,condition1,old,happy,woman_old_happy,"""happy old woman""",woman,[0.03],"""old happy woman""",2959,49,,[],24,Thank you!,3,2,Male,English,Chrome,Linux,891,434,5.2732833333333335,
60,condition1,metal,dirty,spoon_metal_dirty,"""metal dirty spoon""",spoon,[0.96],"""dirty metal spoon""",2932,50,,[],24,Thank you!,3,2,Male,English,Chrome,Linux,891,434,5.2732833333333335,
60,condition1,closed,cardboard,box_closed_cardboard,"""cardboard closed box""",box,[0.96],"""closed cardboard box""",3158,51,,[],24,Thank you!,3,2,Male,English,Chrome,Linux,891,434,5.2732833333333335,
60,condition1,black,glossy,nails_black_glossy,"""black glossy nails""",nails,[0.99],"""glossy black nails""",2505,52,,[],24,Thank you!,3,2,Male,English,Chrome,Linux,891,434,5.2732833333333335,
60,condition1,old,clean-shaven,man_old_cleanshaven,"""clean-shaven old man""",man,[0],"""old clean-shaven man""",2785,53,,[],24,Thank you!,3,2,Male,English,Chrome,Linux,891,434,5.2732833333333335,
60,condition1,spotted,red,frog_spotted_red,"""red spotted frog""",frog,[0.93],"""spotted red frog""",6023,54,,[],24,Thank you!,3,2,Male,English,Chrome,Linux,891,434,5.2732833333333335,
60,condition1,striped,red,frog_striped_red,"""red striped frog""",frog,[0.95],"""striped red frog""",4928,55,,[],24,Thank you!,3,2,Male,English,Chrome,Linux,891,434,5.2732833333333335,
60,condition1,long,blue,pencil_long_blue,"""long blue pencil""",pencil,[0.02],"""blue long pencil""",2167,56,,[],24,Thank you!,3,2,Male,English,Chrome,Linux,891,434,5.2732833333333335,
60,condition1,colored,square,picture_colored_square,"""square colored picture""",picture,[0.98],"""colored square picture""",6566,57,,[],24,Thank you!,3,2,Male,English,Chrome,Linux,891,434,5.2732833333333335,
60,condition1,spotted,green,frog_spotted_green,"""spotted green frog""",frog,[0.02],"""green spotted frog""",3631,58,,[],24,Thank you!,3,2,Male,English,Chrome,Linux,891,434,5.2732833333333335,
60,condition1,glass,small,bottle_glass_small,"""glass small bottle""",bottle,[0.98],"""small glass bottle""",5004,59,,[],24,Thank you!,3,2,Male,English,Chrome,Linux,891,434,5.2732833333333335,
60,condition1,long,black,pencil_long_black,"""long black pencil""",pencil,[0.05],"""black long pencil""",3270,60,,[],24,Thank you!,3,2,Male,English,Chrome,Linux,891,434,5.2732833333333335,
60,condition1,wet,green,shorts_wet_green,"""green wet shorts""",shorts,[0.99],"""wet green shorts""",2568,61,,[],24,Thank you!,3,2,Male,English,Chrome,Linux,891,434,5.2732833333333335,
60,condition1,wet,red,shorts_wet_red,"""red wet shorts""",shorts,[1],"""wet red shorts""",3201,62,,[],24,Thank you!,3,2,Male,English,Chrome,Linux,891,434,5.2732833333333335,
62,condition1,,,,,Susan,Susan,,0,1,bot_check,[],33,Well done.,3,2,Male,English,Chrome,Windows,1080,1920,5.691483333333333,
62,condition1,big,round,earring_big_round,"""big round earring""",earring,[0.15],"""round big earring""",12215,3,,[],33,Well done.,3,2,Male,English,Chrome,Windows,1080,1920,5.691483333333333,
62,condition1,straight,brown,hair_straight_brown,"""straight brown hair""",hair,[0.01],"""brown straight hair""",5784,4,,[],33,Well done.,3,2,Male,English,Chrome,Windows,1080,1920,5.691483333333333,
62,condition1,long,blue,pencil_long_blue,"""blue long pencil""",pencil,[0.87],"""long blue pencil""",4872,5,,[],33,Well done.,3,2,Male,English,Chrome,Windows,1080,1920,5.691483333333333,
62,condition1,red,glossy,nails_red_glossy,"""glossy red nails""",nails,[0.02],"""red glossy nails""",4968,6,,[],33,Well done.,3,2,Male,English,Chrome,Windows,1080,1920,5.691483333333333,
62,condition1,metal,high,table_metal_high,"""metal high table""",table,[0.96],"""high metal table""",3960,7,,[],33,Well done.,3,2,Male,English,Chrome,Windows,1080,1920,5.691483333333333,
62,condition1,wooden,low,table_wood_low,"""low wooden table""",table,[0.05],"""wooden low table""",3680,8,,[],33,Well done.,3,2,Male,English,Chrome,Windows,1080,1920,5.691483333333333,
62,condition1,short,blue,pencil_short_blue,"""short blue pencil""",pencil,[0.03],"""blue short pencil""",3616,9,,[],33,Well done.,3,2,Male,English,Chrome,Windows,1080,1920,5.691483333333333,
62,condition1,plastic,big,bottle_plastic_big,"""plastic big bottle""",bottle,[0.93],"""big plastic bottle""",4624,10,,[],33,Well done.,3,2,Male,English,Chrome,Windows,1080,1920,5.691483333333333,
62,condition1,colored,square,picture_colored_square,"""square colored picture""",picture,[0.06],"""colored square picture""",4736,11,,[],33,Well done.,3,2,Male,English,Chrome,Windows,1080,1920,5.691483333333333,
62,condition1,spotted,green,frog_spotted_green,"""green spotted frog""",frog,[0.92],"""spotted green frog""",7056,12,,[],33,Well done.,3,2,Male,English,Chrome,Windows,1080,1920,5.691483333333333,
62,condition1,black,glossy,nails_black_glossy,"""black glossy nails""",nails,[0.04],"""glossy black nails""",5624,13,,[],33,Well done.,3,2,Male,English,Chrome,Windows,1080,1920,5.691483333333333,
62,condition1,small,triangular,earring_small_triangular,"""small triangular earring""",earring,[0.05],"""triangular small earring""",4768,14,,[],33,Well done.,3,2,Male,English,Chrome,Windows,1080,1920,5.691483333333333,
62,condition1,black and white,rectangular,picture_bw_rectangular,"""black and white rectangular picture""",picture,[0.07],"""rectangular black and white picture""",9848,15,,[],33,Well done.,3,2,Male,English,Chrome,Windows,1080,1920,5.691483333333333,
62,condition1,wooden,clean,spoon_wooden_clean,"""clean wooden spoon""",spoon,[0.04],"""wooden clean spoon""",3544,16,,[],33,Well done.,3,2,Male,English,Chrome,Windows,1080,1920,5.691483333333333,
62,condition1,bearded,glasses-wearing,man2_bearded_glassed,"""bearded glasses-wearing man""",man,[0.89],"""glasses-wearing bearded man""",5408,17,,[],33,Well done.,3,2,Male,English,Chrome,Windows,1080,1920,5.691483333333333,
62,condition1,closed,cardboard,box_closed_cardboard,"""cardboard closed box""",box,[0.93],"""closed cardboard box""",3168,18,,[],33,Well done.,3,2,Male,English,Chrome,Windows,1080,1920,5.691483333333333,
62,condition1,young,sad,woman_young_sad,"""sad young woman""",woman,[0.03],"""young sad woman""",3488,19,,[],33,Well done.,3,2,Male,English,Chrome,Windows,1080,1920,5.691483333333333,
62,condition1,wet,red,shorts_wet_red,"""red wet shorts""",shorts,[0.94],"""wet red shorts""",3727,20,,[],33,Well done.,3,2,Male,English,Chrome,Windows,1080,1920,5.691483333333333,
62,condition1,glass,big,bottle_glass_big,"""big glass bottle""",bottle,[0.02],"""glass big bottle""",4120,21,,[],33,Well done.,3,2,Male,English,Chrome,Windows,1080,1920,5.691483333333333,
62,condition1,spotted,red,frog_spotted_red,"""red spotted frog""",frog,[0.95],"""spotted red frog""",8424,22,,[],33,Well done.,3,2,Male,English,Chrome,Windows,1080,1920,5.691483333333333,
62,condition1,mustache-touting,hat-wearing,man2_mustached_hatted,"""hat-wearing mustache-touting man""",man,[0.05],"""mustache-touting hat-wearing man""",12551,23,,[],33,Well done.,3,2,Male,English,Chrome,Windows,1080,1920,5.691483333333333,
62,condition1,black,matte,nails_black_matte,"""black matte nails""",nails,[0.93],"""matte black nails""",5472,24,,[],33,Well done.,3,2,Male,English,Chrome,Windows,1080,1920,5.691483333333333,
62,condition1,metal,low,table_metal_low,"""low metal table""",table,[0.04],"""metal low table""",3632,25,,[],33,Well done.,3,2,Male,English,Chrome,Windows,1080,1920,5.691483333333333,
62,condition1,metal,dirty,spoon_metal_dirty,"""metal dirty spoon""",spoon,[0.95],"""dirty metal spoon""",3591,26,,[],33,Well done.,3,2,Male,English,Chrome,Windows,1080,1920,5.691483333333333,
62,condition1,straight,blond,hair_straight_blonde,"""blond straight hair""",hair,[0.95],"""straight blond hair""",4136,27,,[],33,Well done.,3,2,Male,English,Chrome,Windows,1080,1920,5.691483333333333,
62,condition1,curly,blond,hair_curly_blonde,"""curly blond hair""",hair,[0.05],"""blond curly hair""",3216,28,,[],33,Well done.,3,2,Male,English,Chrome,Windows,1080,1920,5.691483333333333,
62,condition1,old,sad,woman_old_sad,"""sad old woman""",woman,[0.04],"""old sad woman""",6984,29,,[],33,Well done.,3,2,Male,English,Chrome,Windows,1080,1920,5.691483333333333,
62,condition1,colored,rectangular,picture_colored_rectangular,"""colored rectangular picture""",picture,[0.95],"""rectangular colored picture""",9216,30,,[],33,Well done.,3,2,Male,English,Chrome,Windows,1080,1920,5.691483333333333,
62,condition1,striped,green,frog_striped_green,"""striped green frog""",frog,[0.95],"""green striped frog""",6320,31,,[],33,Well done.,3,2,Male,English,Chrome,Windows,1080,1920,5.691483333333333,
62,condition1,bearded,hat-wearing,man2_bearded_hatted,"""hat-wearing bearded man""",man,[0.04],"""bearded hat-wearing man""",5864,32,,[],33,Well done.,3,2,Male,English,Chrome,Windows,1080,1920,5.691483333333333,
62,condition1,red,matte,nails_red_matte,"""matte red nails""",nails,[0.04],"""red matte nails""",5952,33,,[],33,Well done.,3,2,Male,English,Chrome,Windows,1080,1920,5.691483333333333,
62,condition1,black and white,square,picture_bw_square,"""black and white square picture""",picture,[0.05],"""square black and white picture""",7944,34,,[],33,Well done.,3,2,Male,English,Chrome,Windows,1080,1920,5.691483333333333,
62,condition1,closed,wooden,box_closed_wood,"""wooden closed box""",box,[0.92],"""closed wooden box""",2583,35,,[],33,Well done.,3,2,Male,English,Chrome,Windows,1080,1920,5.691483333333333,
62,condition1,long,black,pencil_long_black,"""black long pencil""",pencil,[0.96],"""long black pencil""",4400,36,,[],33,Well done.,3,2,Male,English,Chrome,Windows,1080,1920,5.691483333333333,
62,condition1,old,clean-shaven,man_old_cleanshaven,"""old clean-shaven man""",man,[0.95],"""clean-shaven old man""",4848,37,,[],33,Well done.,3,2,Male,English,Chrome,Windows,1080,1920,5.691483333333333,
62,condition1,mustache-touting,glasses-wearing,man2_mustached_glassed,"""mustache-touting glasses-wearing man""",man,[0.96],"""glasses-wearing mustache-touting man""",9895,38,,[],33,Well done.,3,2,Male,English,Chrome,Windows,1080,1920,5.691483333333333,
62,condition1,wet,green,shorts_wet_green,"""green wet shorts""",shorts,[0.95],"""wet green shorts""",4761,39,,[],33,Well done.,3,2,Male,English,Chrome,Windows,1080,1920,5.691483333333333,
62,condition1,short,black,pencil_short_black,"""black short pencil""",pencil,[0.95],"""short black pencil""",4336,40,,[],33,Well done.,3,2,Male,English,Chrome,Windows,1080,1920,5.691483333333333,
62,condition1,young,happy,woman_young_happy,"""happy young woman""",woman,[0.93],"""young happy woman""",5791,41,,[],33,Well done.,3,2,Male,English,Chrome,Windows,1080,1920,5.691483333333333,
62,condition1,happy,skinny,woman2_happy_skinny,"""happy skinny woman""",woman,[0.96],"""skinny happy woman""",5264,42,,[],33,Well done.,3,2,Male,English,Chrome,Windows,1080,1920,5.691483333333333,
62,condition1,old,happy,woman_old_happy,"""old happy woman""",woman,[0.94],"""happy old woman""",3096,43,,[],33,Well done.,3,2,Male,English,Chrome,Windows,1080,1920,5.691483333333333,
62,condition1,wooden,high,table_wood_high,"""wooden high table""",table,[0.9],"""high wooden table""",5440,44,,[],33,Well done.,3,2,Male,English,Chrome,Windows,1080,1920,5.691483333333333,
62,condition1,sad,fat,woman2_sad_fat,"""fat sad woman""",woman,[0.95],"""sad fat woman""",4336,45,,[],33,Well done.,3,2,Male,English,Chrome,Windows,1080,1920,5.691483333333333,
62,condition1,young,bearded,man_young_bearded,"""bearded young man""",man,[0.97],"""young bearded man""",8256,46,,[],33,Well done.,3,2,Male,English,Chrome,Windows,1080,1920,5.691483333333333,
62,condition1,old,bearded,man_old_bearded,"""old bearded man""",man,[0.95],"""bearded old man""",2495,47,,[],33,Well done.,3,2,Male,English,Chrome,Windows,1080,1920,5.691483333333333,
62,condition1,dry,red,shorts_dry_red,"""dry red shorts""",shorts,[0.02],"""red dry shorts""",4649,48,,[],33,Well done.,3,2,Male,English,Chrome,Windows,1080,1920,5.691483333333333,
62,condition1,big,triangular,earring_big_triangular,"""big triangular earring""",earring,[0.08],"""triangular big earring""",6080,49,,[],33,Well done.,3,2,Male,English,Chrome,Windows,1080,1920,5.691483333333333,
62,condition1,open,cardboard,box_open_cardboard,"""cardboard open box""",box,[0.94],"""open cardboard box""",4008,50,,[],33,Well done.,3,2,Male,English,Chrome,Windows,1080,1920,5.691483333333333,
62,condition1,young,clean-shaven,man_young_cleanshaven,"""clean-shaven young man""",man,[0.04],"""young clean-shaven man""",4864,51,,[],33,Well done.,3,2,Male,English,Chrome,Windows,1080,1920,5.691483333333333,
62,condition1,plastic,small,bottle_plastic_small,"""small plastic bottle""",bottle,[0.01],"""plastic small bottle""",4663,52,,[],33,Well done.,3,2,Male,English,Chrome,Windows,1080,1920,5.691483333333333,
62,condition1,small,round,earring_small_round,"""round small earring""",earring,[0.97],"""small round earring""",5992,53,,[],33,Well done.,3,2,Male,English,Chrome,Windows,1080,1920,5.691483333333333,
62,condition1,open,wooden,box_open_wood,"""open wooden box""",box,[0.05],"""wooden open box""",3288,54,,[],33,Well done.,3,2,Male,English,Chrome,Windows,1080,1920,5.691483333333333,
62,condition1,dry,green,shorts_dry_green,"""dry green shorts""",shorts,[0.02],"""green dry shorts""",3336,55,,[],33,Well done.,3,2,Male,English,Chrome,Windows,1080,1920,5.691483333333333,
62,condition1,metal,clean,spoon_metal_clean,"""metal clean spoon""",spoon,[0.94],"""clean metal spoon""",3720,56,,[],33,Well done.,3,2,Male,English,Chrome,Windows,1080,1920,5.691483333333333,
62,condition1,striped,red,frog_striped_red,"""red striped frog""",frog,[0.05],"""striped red frog""",4144,57,,[],33,Well done.,3,2,Male,English,Chrome,Windows,1080,1920,5.691483333333333,
62,condition1,glass,small,bottle_glass_small,"""small glass bottle""",bottle,[0.03],"""glass small bottle""",5056,58,,[],33,Well done.,3,2,Male,English,Chrome,Windows,1080,1920,5.691483333333333,
62,condition1,wooden,dirty,spoon_wooden_dirty,"""wooden dirty spoon""",spoon,[0.96],"""dirty wooden spoon""",3784,59,,[],33,Well done.,3,2,Male,English,Chrome,Windows,1080,1920,5.691483333333333,
62,condition1,happy,fat,woman2_happy_fat,"""fat happy woman""",woman,[0.97],"""happy fat woman""",2960,60,,[],33,Well done.,3,2,Male,English,Chrome,Windows,1080,1920,5.691483333333333,
62,condition1,sad,skinny,woman2_sad_skinny,"""sad skinny woman""",woman,[0.98],"""skinny sad woman""",2448,61,,[],33,Well done.,3,2,Male,English,Chrome,Windows,1080,1920,5.691483333333333,
62,condition1,curly,brown,hair_curly_brown,"""curly brown hair""",hair,[0.05],"""brown curly hair""",3432,62,,[],33,Well done.,3,2,Male,English,Chrome,Windows,1080,1920,5.691483333333333,
16,condition1,,,,,Elizabeth,Elizabeth,,0,1,bot_check,[],73,,4,2,Male,English,Chrome,Mac,900,1440,7.286,
16,condition1,old,happy,woman_old_happy,"""happy old woman""",woman,[0.06],"""old happy woman""",16052,3,,[],73,,4,2,Male,English,Chrome,Mac,900,1440,7.286,
16,condition1,black and white,square,picture_bw_square,"""black and white square picture""",picture,[0.92],"""square black and white picture""",13368,4,,[],73,,4,2,Male,English,Chrome,Mac,900,1440,7.286,
16,condition1,sad,skinny,woman2_sad_skinny,"""sad skinny woman""",woman,[0.76],"""skinny sad woman""",8217,5,,[],73,,4,2,Male,English,Chrome,Mac,900,1440,7.286,
16,condition1,striped,green,frog_striped_green,"""green striped frog""",frog,[0.93],"""striped green frog""",5709,6,,[],73,,4,2,Male,English,Chrome,Mac,900,1440,7.286,
16,condition1,short,black,pencil_short_black,"""short black pencil""",pencil,[0.08],"""black short pencil""",6431,7,,[],73,,4,2,Male,English,Chrome,Mac,900,1440,7.286,
16,condition1,happy,skinny,woman2_happy_skinny,"""skinny happy woman""",woman,[0.77],"""happy skinny woman""",6019,8,,[],73,,4,2,Male,English,Chrome,Mac,900,1440,7.286,
16,condition1,straight,blond,hair_straight_blonde,"""blond straight hair""",hair,[0.94],"""straight blond hair""",7585,9,,[],73,,4,2,Male,English,Chrome,Mac,900,1440,7.286,
16,condition1,metal,dirty,spoon_metal_dirty,"""metal dirty spoon""",spoon,[0.84],"""dirty metal spoon""",5411,10,,[],73,,4,2,Male,English,Chrome,Mac,900,1440,7.286,
16,condition1,open,wooden,box_open_wood,"""wooden open box""",box,[0.94],"""open wooden box""",5458,11,,[],73,,4,2,Male,English,Chrome,Mac,900,1440,7.286,
16,condition1,big,round,earring_big_round,"""big round earring""",earring,[0.11],"""round big earring""",6458,12,,[],73,,4,2,Male,English,Chrome,Mac,900,1440,7.286,
16,condition1,bearded,hat-wearing,man2_bearded_hatted,"""hat-wearing bearded man""",man,[0.93],"""bearded hat-wearing man""",9098,13,,[],73,,4,2,Male,English,Chrome,Mac,900,1440,7.286,
16,condition1,black,matte,nails_black_matte,"""matte black nails""",nails,[0.76],"""black matte nails""",6712,14,,[],73,,4,2,Male,English,Chrome,Mac,900,1440,7.286,
16,condition1,wooden,low,table_wood_low,"""low wooden table""",table,[0.05],"""wooden low table""",6292,15,,[],73,,4,2,Male,English,Chrome,Mac,900,1440,7.286,
16,condition1,glass,big,bottle_glass_big,"""glass big bottle""",bottle,[0.95],"""big glass bottle""",7309,16,,[],73,,4,2,Male,English,Chrome,Mac,900,1440,7.286,
16,condition1,old,bearded,man_old_bearded,"""old bearded man""",man,[0.67],"""bearded old man""",5592,17,,[],73,,4,2,Male,English,Chrome,Mac,900,1440,7.286,
16,condition1,wet,green,shorts_wet_green,"""wet green shorts""",shorts,[0.92],"""green wet shorts""",4997,18,,[],73,,4,2,Male,English,Chrome,Mac,900,1440,7.286,
16,condition1,mustache-touting,hat-wearing,man2_mustached_hatted,"""mustache-touting hat-wearing man""",man,[0.31],"""hat-wearing mustache-touting man""",10994,19,,[],73,,4,2,Male,English,Chrome,Mac,900,1440,7.286,
16,condition1,mustache-touting,glasses-wearing,man2_mustached_glassed,"""mustache-touting glasses-wearing man""",man,[0.74],"""glasses-wearing mustache-touting man""",9757,20,,[],73,,4,2,Male,English,Chrome,Mac,900,1440,7.286,
16,condition1,wooden,dirty,spoon_wooden_dirty,"""dirty wooden spoon""",spoon,[0.05],"""wooden dirty spoon""",3813,21,,[],73,,4,2,Male,English,Chrome,Mac,900,1440,7.286,
16,condition1,red,matte,nails_red_matte,"""matte red nails""",nails,[0.87],"""red matte nails""",7320,22,,[],73,,4,2,Male,English,Chrome,Mac,900,1440,7.286,
16,condition1,bearded,glasses-wearing,man2_bearded_glassed,"""bearded glasses-wearing man""",man,[0.76],"""glasses-wearing bearded man""",12189,23,,[],73,,4,2,Male,English,Chrome,Mac,900,1440,7.286,
16,condition1,colored,square,picture_colored_square,"""square colored picture""",picture,[0.08],"""colored square picture""",6095,24,,[],73,,4,2,Male,English,Chrome,Mac,900,1440,7.286,
16,condition1,old,clean-shaven,man_old_cleanshaven,"""clean-shaven old man""",man,[0.03],"""old clean-shaven man""",4515,25,,[],73,,4,2,Male,English,Chrome,Mac,900,1440,7.286,
16,condition1,wet,red,shorts_wet_red,"""red wet shorts""",shorts,[0.92],"""wet red shorts""",5763,26,,[],73,,4,2,Male,English,Chrome,Mac,900,1440,7.286,
16,condition1,black,glossy,nails_black_glossy,"""glossy black nails""",nails,[0.08],"""black glossy nails""",6083,27,,[],73,,4,2,Male,English,Chrome,Mac,900,1440,7.286,
16,condition1,young,clean-shaven,man_young_cleanshaven,"""young clean-shaven man""",man,[0.94],"""clean-shaven young man""",5639,28,,[],73,,4,2,Male,English,Chrome,Mac,900,1440,7.286,
16,condition1,plastic,big,bottle_plastic_big,"""big plastic bottle""",bottle,[0.14],"""plastic big bottle""",6717,29,,[],73,,4,2,Male,English,Chrome,Mac,900,1440,7.286,
16,condition1,spotted,red,frog_spotted_red,"""spotted red frog""",frog,[0.74],"""red spotted frog""",6723,30,,[],73,,4,2,Male,English,Chrome,Mac,900,1440,7.286,
16,condition1,red,glossy,nails_red_glossy,"""glossy red nails""",nails,[0.24],"""red glossy nails""",6618,31,,[],73,,4,2,Male,English,Chrome,Mac,900,1440,7.286,
16,condition1,dry,green,shorts_dry_green,"""dry green shorts""",shorts,[0.05],"""green dry shorts""",7045,32,,[],73,,4,2,Male,English,Chrome,Mac,900,1440,7.286,
16,condition1,metal,clean,spoon_metal_clean,"""metal clean spoon""",spoon,[0.9],"""clean metal spoon""",4767,33,,[],73,,4,2,Male,English,Chrome,Mac,900,1440,7.286,
16,condition1,colored,rectangular,picture_colored_rectangular,"""rectangular colored picture""",picture,[0.91],"""colored rectangular picture""",7004,34,,[],73,,4,2,Male,English,Chrome,Mac,900,1440,7.286,
16,condition1,long,blue,pencil_long_blue,"""blue long pencil""",pencil,[0.93],"""long blue pencil""",6108,35,,[],73,,4,2,Male,English,Chrome,Mac,900,1440,7.286,
16,condition1,spotted,green,frog_spotted_green,"""green spotted frog""",frog,[0.89],"""spotted green frog""",5230,36,,[],73,,4,2,Male,English,Chrome,Mac,900,1440,7.286,
16,condition1,glass,small,bottle_glass_small,"""small glass bottle""",bottle,[0.13],"""glass small bottle""",6378,37,,[],73,,4,2,Male,English,Chrome,Mac,900,1440,7.286,
16,condition1,wooden,clean,spoon_wooden_clean,"""wooden clean spoon""",spoon,[0.93],"""clean wooden spoon""",6969,38,,[],73,,4,2,Male,English,Chrome,Mac,900,1440,7.286,
16,condition1,metal,low,table_metal_low,"""low metal table""",table,[0.05],"""metal low table""",5377,39,,[],73,,4,2,Male,English,Chrome,Mac,900,1440,7.286,
16,condition1,open,cardboard,box_open_cardboard,"""open cardboard box""",box,[0.05],"""cardboard open box""",8604,40,,[],73,,4,2,Male,English,Chrome,Mac,900,1440,7.286,
16,condition1,small,triangular,earring_small_triangular,"""triangular small earring""",earring,[0.94],"""small triangular earring""",5080,41,,[],73,,4,2,Male,English,Chrome,Mac,900,1440,7.286,
16,condition1,straight,brown,hair_straight_brown,"""brown straight hair""",hair,[0.93],"""straight brown hair""",6188,42,,[],73,,4,2,Male,English,Chrome,Mac,900,1440,7.286,
16,condition1,happy,fat,woman2_happy_fat,"""fat happy woman""",woman,[0.91],"""happy fat woman""",4706,43,,[],73,,4,2,Male,English,Chrome,Mac,900,1440,7.286,
16,condition1,big,triangular,earring_big_triangular,"""big triangular earring""",earring,[0.49],"""triangular big earring""",10812,44,,[],73,,4,2,Male,English,Chrome,Mac,900,1440,7.286,
16,condition1,old,sad,woman_old_sad,"""old sad woman""",woman,[0.91],"""sad old woman""",4453,45,,[],73,,4,2,Male,English,Chrome,Mac,900,1440,7.286,
16,condition1,plastic,small,bottle_plastic_small,"""small plastic bottle""",bottle,[0.07],"""plastic small bottle""",4955,46,,[],73,,4,2,Male,English,Chrome,Mac,900,1440,7.286,
16,condition1,young,sad,woman_young_sad,"""sad young woman""",woman,[0.08],"""young sad woman""",8255,47,,[],73,,4,2,Male,English,Chrome,Mac,900,1440,7.286,
16,condition1,short,blue,pencil_short_blue,"""blue short pencil""",pencil,[0.93],"""short blue pencil""",4283,48,,[],73,,4,2,Male,English,Chrome,Mac,900,1440,7.286,
16,condition1,wooden,high,table_wood_high,"""high wooden table""",table,[0.13],"""wooden high table""",5916,49,,[],73,,4,2,Male,English,Chrome,Mac,900,1440,7.286,
16,condition1,curly,blond,hair_curly_blonde,"""curly blond hair""",hair,[0.05],"""blond curly hair""",4788,50,,[],73,,4,2,Male,English,Chrome,Mac,900,1440,7.286,
16,condition1,metal,high,table_metal_high,"""high metal table""",table,[0.05],"""metal high table""",4850,51,,[],73,,4,2,Male,English,Chrome,Mac,900,1440,7.286,
16,condition1,striped,red,frog_striped_red,"""red striped frog""",frog,[0.48],"""striped red frog""",11018,52,,[],73,,4,2,Male,English,Chrome,Mac,900,1440,7.286,
16,condition1,curly,brown,hair_curly_brown,"""brown curly hair""",hair,[0.49],"""curly brown hair""",5941,53,,[],73,,4,2,Male,English,Chrome,Mac,900,1440,7.286,
16,condition1,small,round,earring_small_round,"""small round earring""",earring,[0.12],"""round small earring""",4944,54,,[],73,,4,2,Male,English,Chrome,Mac,900,1440,7.286,
16,condition1,closed,cardboard,box_closed_cardboard,"""closed cardboard box""",box,[0.02],"""cardboard closed box""",5865,55,,[],73,,4,2,Male,English,Chrome,Mac,900,1440,7.286,
16,condition1,closed,wooden,box_closed_wood,"""wooden closed box""",box,[0.91],"""closed wooden box""",5299,56,,[],73,,4,2,Male,English,Chrome,Mac,900,1440,7.286,
16,condition1,young,happy,woman_young_happy,"""young happy woman""",woman,[0.94],"""happy young woman""",4959,57,,[],73,,4,2,Male,English,Chrome,Mac,900,1440,7.286,
16,condition1,long,black,pencil_long_black,"""black long pencil""",pencil,[0.91],"""long black pencil""",6288,58,,[],73,,4,2,Male,English,Chrome,Mac,900,1440,7.286,
16,condition1,sad,fat,woman2_sad_fat,"""fat sad woman""",woman,[0.93],"""sad fat woman""",5643,59,,[],73,,4,2,Male,English,Chrome,Mac,900,1440,7.286,
16,condition1,young,bearded,man_young_bearded,"""bearded young man""",man,[0.07],"""young bearded man""",5585,60,,[],73,,4,2,Male,English,Chrome,Mac,900,1440,7.286,
16,condition1,black and white,rectangular,picture_bw_rectangular,"""black and white rectangular picture""",picture,[0.08],"""rectangular black and white picture""",7100,61,,[],73,,4,2,Male,English,Chrome,Mac,900,1440,7.286,
16,condition1,dry,red,shorts_dry_red,"""dry red shorts""",shorts,[0.05],"""red dry shorts""",4469,62,,[],73,,4,2,Male,English,Chrome,Mac,900,1440,7.286,
75,condition1,,,,,Margaret,Margaret,,0,1,bot_check,[],45,,3,1,Female,English,Firefox,Windows,1080,1920,21.685283333333334,
75,condition1,small,round,earring_small_round,"""small round earring""",earring,[0.09],"""round small earring""",18269,3,,[],45,,3,1,Female,English,Firefox,Windows,1080,1920,21.685283333333334,
75,condition1,straight,blond,hair_straight_blonde,"""straight blond hair""",hair,[0.07],"""blond straight hair""",940005,4,,[],45,,3,1,Female,English,Firefox,Windows,1080,1920,21.685283333333334,
75,condition1,sad,fat,woman2_sad_fat,"""fat sad woman""",woman,[0.85],"""sad fat woman""",3328,5,,[],45,,3,1,Female,English,Firefox,Windows,1080,1920,21.685283333333334,
75,condition1,black,glossy,nails_black_glossy,"""black glossy nails""",nails,[0.57],"""glossy black nails""",4704,6,,[],45,,3,1,Female,English,Firefox,Windows,1080,1920,21.685283333333334,
75,condition1,happy,skinny,woman2_happy_skinny,"""happy skinny woman""",woman,[0.2],"""skinny happy woman""",7006,7,,[],45,,3,1,Female,English,Firefox,Windows,1080,1920,21.685283333333334,
75,condition1,metal,low,table_metal_low,"""low metal table""",table,[0.85],"""metal low table""",5468,8,,[],45,,3,1,Female,English,Firefox,Windows,1080,1920,21.685283333333334,
75,condition1,dry,red,shorts_dry_red,"""dry red shorts""",shorts,[0.49],"""red dry shorts""",6013,9,,[],45,,3,1,Female,English,Firefox,Windows,1080,1920,21.685283333333334,
75,condition1,red,glossy,nails_red_glossy,"""red glossy nails""",nails,[0.48],"""glossy red nails""",5400,10,,[],45,,3,1,Female,English,Firefox,Windows,1080,1920,21.685283333333334,
75,condition1,mustache-touting,glasses-wearing,man2_mustached_glassed,"""mustache-touting glasses-wearing man""",man,[0.65],"""glasses-wearing mustache-touting man""",8057,11,,[],45,,3,1,Female,English,Firefox,Windows,1080,1920,21.685283333333334,
75,condition1,young,bearded,man_young_bearded,"""young bearded man""",man,[0.21],"""bearded young man""",4512,12,,[],45,,3,1,Female,English,Firefox,Windows,1080,1920,21.685283333333334,
75,condition1,spotted,red,frog_spotted_red,"""red spotted frog""",frog,[0.76],"""spotted red frog""",4614,13,,[],45,,3,1,Female,English,Firefox,Windows,1080,1920,21.685283333333334,
75,condition1,open,wooden,box_open_wood,"""wooden open box""",box,[0.91],"""open wooden box""",5777,14,,[],45,,3,1,Female,English,Firefox,Windows,1080,1920,21.685283333333334,
75,condition1,curly,blond,hair_curly_blonde,"""curly blond hair""",hair,[0.53],"""blond curly hair""",4409,15,,[],45,,3,1,Female,English,Firefox,Windows,1080,1920,21.685283333333334,
75,condition1,wooden,clean,spoon_wooden_clean,"""wooden clean spoon""",spoon,[0.83],"""clean wooden spoon""",9374,16,,[],45,,3,1,Female,English,Firefox,Windows,1080,1920,21.685283333333334,
75,condition1,colored,rectangular,picture_colored_rectangular,"""colored rectangular picture""",picture,[0.79],"""rectangular colored picture""",4897,17,,[],45,,3,1,Female,English,Firefox,Windows,1080,1920,21.685283333333334,
75,condition1,straight,brown,hair_straight_brown,"""brown straight hair""",hair,[0.53],"""straight brown hair""",4663,18,,[],45,,3,1,Female,English,Firefox,Windows,1080,1920,21.685283333333334,
75,condition1,old,clean-shaven,man_old_cleanshaven,"""clean-shaven old man""",man,[0.26],"""old clean-shaven man""",16217,19,,[],45,,3,1,Female,English,Firefox,Windows,1080,1920,21.685283333333334,
75,condition1,spotted,green,frog_spotted_green,"""green spotted frog""",frog,[0.85],"""spotted green frog""",5775,20,,[],45,,3,1,Female,English,Firefox,Windows,1080,1920,21.685283333333334,
75,condition1,bearded,hat-wearing,man2_bearded_hatted,"""bearded hat-wearing man""",man,[0.76],"""hat-wearing bearded man""",6903,21,,[],45,,3,1,Female,English,Firefox,Windows,1080,1920,21.685283333333334,
75,condition1,wooden,high,table_wood_high,"""wooden high table""",table,[0.74],"""high wooden table""",5545,22,,[],45,,3,1,Female,English,Firefox,Windows,1080,1920,21.685283333333334,
75,condition1,black,matte,nails_black_matte,"""matte black nails""",nails,[0.82],"""black matte nails""",24543,23,,[],45,,3,1,Female,English,Firefox,Windows,1080,1920,21.685283333333334,
75,condition1,old,happy,woman_old_happy,"""happy old woman""",woman,[0.15],"""old happy woman""",4720,24,,[],45,,3,1,Female,English,Firefox,Windows,1080,1920,21.685283333333334,
75,condition1,wet,green,shorts_wet_green,"""green wet shorts""",shorts,[0.82],"""wet green shorts""",5528,25,,[],45,,3,1,Female,English,Firefox,Windows,1080,1920,21.685283333333334,
75,condition1,wet,red,shorts_wet_red,"""red wet shorts""",shorts,[0.89],"""wet red shorts""",3296,26,,[],45,,3,1,Female,English,Firefox,Windows,1080,1920,21.685283333333334,
75,condition1,bearded,glasses-wearing,man2_bearded_glassed,"""glasses-wearing bearded man""",man,[0.12],"""bearded glasses-wearing man""",5824,27,,[],45,,3,1,Female,English,Firefox,Windows,1080,1920,21.685283333333334,
75,condition1,striped,green,frog_striped_green,"""green striped frog""",frog,[0.22],"""striped green frog""",3832,28,,[],45,,3,1,Female,English,Firefox,Windows,1080,1920,21.685283333333334,
75,condition1,long,blue,pencil_long_blue,"""long blue pencil""",pencil,[0.22],"""blue long pencil""",3225,29,,[],45,,3,1,Female,English,Firefox,Windows,1080,1920,21.685283333333334,
75,condition1,big,triangular,earring_big_triangular,"""big triangular earring""",earring,[0.34],"""triangular big earring""",6384,30,,[],45,,3,1,Female,English,Firefox,Windows,1080,1920,21.685283333333334,
75,condition1,closed,wooden,box_closed_wood,"""closed wooden box""",box,[0.18],"""wooden closed box""",6240,31,,[],45,,3,1,Female,English,Firefox,Windows,1080,1920,21.685283333333334,
75,condition1,wooden,low,table_wood_low,"""low wooden table""",table,[0.33],"""wooden low table""",3806,32,,[],45,,3,1,Female,English,Firefox,Windows,1080,1920,21.685283333333334,
75,condition1,big,round,earring_big_round,"""big round earring""",earring,[0.15],"""round big earring""",3072,33,,[],45,,3,1,Female,English,Firefox,Windows,1080,1920,21.685283333333334,
75,condition1,metal,dirty,spoon_metal_dirty,"""dirty metal spoon""",spoon,[0.16],"""metal dirty spoon""",3671,34,,[],45,,3,1,Female,English,Firefox,Windows,1080,1920,21.685283333333334,
75,condition1,black and white,square,picture_bw_square,"""square black and white picture""",picture,[0.79],"""black and white square picture""",4128,35,,[],45,,3,1,Female,English,Firefox,Windows,1080,1920,21.685283333333334,
75,condition1,happy,fat,woman2_happy_fat,"""happy fat woman""",woman,[0.81],"""fat happy woman""",6775,36,,[],45,,3,1,Female,English,Firefox,Windows,1080,1920,21.685283333333334,
75,condition1,colored,square,picture_colored_square,"""square colored picture""",picture,[0.31],"""colored square picture""",9225,37,,[],45,,3,1,Female,English,Firefox,Windows,1080,1920,21.685283333333334,
75,condition1,glass,small,bottle_glass_small,"""small glass bottle""",bottle,[0.2],"""glass small bottle""",3816,38,,[],45,,3,1,Female,English,Firefox,Windows,1080,1920,21.685283333333334,
75,condition1,plastic,small,bottle_plastic_small,"""small plastic bottle""",bottle,[0.19],"""plastic small bottle""",2808,39,,[],45,,3,1,Female,English,Firefox,Windows,1080,1920,21.685283333333334,
75,condition1,wooden,dirty,spoon_wooden_dirty,"""dirty wooden spoon""",spoon,[0.08],"""wooden dirty spoon""",3975,40,,[],45,,3,1,Female,English,Firefox,Windows,1080,1920,21.685283333333334,
75,condition1,young,happy,woman_young_happy,"""happy young woman""",woman,[0.49],"""young happy woman""",3719,41,,[],45,,3,1,Female,English,Firefox,Windows,1080,1920,21.685283333333334,
75,condition1,metal,clean,spoon_metal_clean,"""clean metal spoon""",spoon,[0.36],"""metal clean spoon""",3584,42,,[],45,,3,1,Female,English,Firefox,Windows,1080,1920,21.685283333333334,
75,condition1,small,triangular,earring_small_triangular,"""triangular small earring""",earring,[0.72],"""small triangular earring""",4352,43,,[],45,,3,1,Female,English,Firefox,Windows,1080,1920,21.685283333333334,
75,condition1,old,sad,woman_old_sad,"""sad old woman""",woman,[0.2],"""old sad woman""",3583,44,,[],45,,3,1,Female,English,Firefox,Windows,1080,1920,21.685283333333334,
75,condition1,dry,green,shorts_dry_green,"""dry green shorts""",shorts,[0.9],"""green dry shorts""",3249,45,,[],45,,3,1,Female,English,Firefox,Windows,1080,1920,21.685283333333334,
75,condition1,curly,brown,hair_curly_brown,"""brown curly hair""",hair,[0.5],"""curly brown hair""",3715,46,,[],45,,3,1,Female,English,Firefox,Windows,1080,1920,21.685283333333334,
75,condition1,long,black,pencil_long_black,"""long black pencil""",pencil,[0.12],"""black long pencil""",3261,47,,[],45,,3,1,Female,English,Firefox,Windows,1080,1920,21.685283333333334,
75,condition1,black and white,rectangular,picture_bw_rectangular,"""rectangular black and white picture""",picture,[0.85],"""black and white rectangular picture""",7151,48,,[],45,,3,1,Female,English,Firefox,Windows,1080,1920,21.685283333333334,
75,condition1,short,black,pencil_short_black,"""black short pencil""",pencil,[0.72],"""short black pencil""",3104,49,,[],45,,3,1,Female,English,Firefox,Windows,1080,1920,21.685283333333334,
75,condition1,young,sad,woman_young_sad,"""sad young woman""",woman,[0.09],"""young sad woman""",5777,50,,[],45,,3,1,Female,English,Firefox,Windows,1080,1920,21.685283333333334,
75,condition1,old,bearded,man_old_bearded,"""old bearded man""",man,[0.45],"""bearded old man""",3326,51,,[],45,,3,1,Female,English,Firefox,Windows,1080,1920,21.685283333333334,
75,condition1,closed,cardboard,box_closed_cardboard,"""closed cardboard box""",box,[0.12],"""cardboard closed box""",4520,52,,[],45,,3,1,Female,English,Firefox,Windows,1080,1920,21.685283333333334,
75,condition1,short,blue,pencil_short_blue,"""blue short pencil""",pencil,[0.85],"""short blue pencil""",2960,53,,[],45,,3,1,Female,English,Firefox,Windows,1080,1920,21.685283333333334,
75,condition1,young,clean-shaven,man_young_cleanshaven,"""young clean-shaven man""",man,[0.91],"""clean-shaven young man""",4210,54,,[],45,,3,1,Female,English,Firefox,Windows,1080,1920,21.685283333333334,
75,condition1,metal,high,table_metal_high,"""metal high table""",table,[0.79],"""high metal table""",4285,55,,[],45,,3,1,Female,English,Firefox,Windows,1080,1920,21.685283333333334,
75,condition1,sad,skinny,woman2_sad_skinny,"""skinny sad woman""",woman,[0.9],"""sad skinny woman""",3375,56,,[],45,,3,1,Female,English,Firefox,Windows,1080,1920,21.685283333333334,
75,condition1,glass,big,bottle_glass_big,"""big glass bottle""",bottle,[0.1],"""glass big bottle""",3633,57,,[],45,,3,1,Female,English,Firefox,Windows,1080,1920,21.685283333333334,
75,condition1,plastic,big,bottle_plastic_big,"""big plastic bottle""",bottle,[0.16],"""plastic big bottle""",2104,58,,[],45,,3,1,Female,English,Firefox,Windows,1080,1920,21.685283333333334,
75,condition1,mustache-touting,hat-wearing,man2_mustached_hatted,"""hat-wearing mustache-touting man""",man,[0.91],"""mustache-touting hat-wearing man""",6215,59,,[],45,,3,1,Female,English,Firefox,Windows,1080,1920,21.685283333333334,
75,condition1,open,cardboard,box_open_cardboard,"""open cardboard box""",box,[0.13],"""cardboard open box""",3932,60,,[],45,,3,1,Female,English,Firefox,Windows,1080,1920,21.685283333333334,
75,condition1,red,matte,nails_red_matte,"""red matte nails""",nails,[0.12],"""matte red nails""",4398,61,,[],45,,3,1,Female,English,Firefox,Windows,1080,1920,21.685283333333334,
75,condition1,striped,red,frog_striped_red,"""red striped frog""",frog,[0.49],"""striped red frog""",4422,62,,[],45,,3,1,Female,English,Firefox,Windows,1080,1920,21.685283333333334,
55,condition1,,,,,Jennifer,Jennifer,,0,1,bot_check,[],22,,2,1,Male,English,Chrome,Windows,1080,1920,5.1943166666666665,
55,condition1,glass,small,bottle_glass_small,"""small glass bottle""",bottle,[0.02],"""glass small bottle""",9570,3,,[],22,,2,1,Male,English,Chrome,Windows,1080,1920,5.1943166666666665,
55,condition1,young,happy,woman_young_happy,"""happy young woman""",woman,[0.5],"""young happy woman""",7230,4,,[],22,,2,1,Male,English,Chrome,Windows,1080,1920,5.1943166666666665,
55,condition1,dry,green,shorts_dry_green,"""dry green shorts""",shorts,[0],"""green dry shorts""",5772,5,,[],22,,2,1,Male,English,Chrome,Windows,1080,1920,5.1943166666666665,
55,condition1,black,matte,nails_black_matte,"""black matte nails""",nails,[0.96],"""matte black nails""",3427,6,,[],22,,2,1,Male,English,Chrome,Windows,1080,1920,5.1943166666666665,
55,condition1,straight,brown,hair_straight_brown,"""straight brown hair""",hair,[0.12],"""brown straight hair""",56875,7,,[],22,,2,1,Male,English,Chrome,Windows,1080,1920,5.1943166666666665,
55,condition1,small,triangular,earring_small_triangular,"""triangular small earring""",earring,[0.93],"""small triangular earring""",5510,8,,[],22,,2,1,Male,English,Chrome,Windows,1080,1920,5.1943166666666665,
55,condition1,short,black,pencil_short_black,"""black short pencil""",pencil,[0.92],"""short black pencil""",2071,9,,[],22,,2,1,Male,English,Chrome,Windows,1080,1920,5.1943166666666665,
55,condition1,young,clean-shaven,man_young_cleanshaven,"""clean-shaven young man""",man,[0.5],"""young clean-shaven man""",3534,10,,[],22,,2,1,Male,English,Chrome,Windows,1080,1920,5.1943166666666665,
55,condition1,straight,blond,hair_straight_blonde,"""straight blond hair""",hair,[0.89],"""blond straight hair""",2294,11,,[],22,,2,1,Male,English,Chrome,Windows,1080,1920,5.1943166666666665,
55,condition1,metal,clean,spoon_metal_clean,"""metal clean spoon""",spoon,[0.94],"""clean metal spoon""",2413,12,,[],22,,2,1,Male,English,Chrome,Windows,1080,1920,5.1943166666666665,
55,condition1,big,triangular,earring_big_triangular,"""triangular big earring""",earring,[0.99],"""big triangular earring""",2266,13,,[],22,,2,1,Male,English,Chrome,Windows,1080,1920,5.1943166666666665,
55,condition1,mustache-touting,glasses-wearing,man2_mustached_glassed,"""glasses-wearing mustache-touting man""",man,[0.05],"""mustache-touting glasses-wearing man""",15935,14,,[],22,,2,1,Male,English,Chrome,Windows,1080,1920,5.1943166666666665,
55,condition1,glass,big,bottle_glass_big,"""big glass bottle""",bottle,[0.07],"""glass big bottle""",2226,15,,[],22,,2,1,Male,English,Chrome,Windows,1080,1920,5.1943166666666665,
55,condition1,old,bearded,man_old_bearded,"""old bearded man""",man,[0.04],"""bearded old man""",1928,16,,[],22,,2,1,Male,English,Chrome,Windows,1080,1920,5.1943166666666665,
55,condition1,curly,brown,hair_curly_brown,"""brown curly hair""",hair,[0.49],"""curly brown hair""",2836,17,,[],22,,2,1,Male,English,Chrome,Windows,1080,1920,5.1943166666666665,
55,condition1,wooden,dirty,spoon_wooden_dirty,"""wooden dirty spoon""",spoon,[0.89],"""dirty wooden spoon""",10096,18,,[],22,,2,1,Male,English,Chrome,Windows,1080,1920,5.1943166666666665,
55,condition1,small,round,earring_small_round,"""round small earring""",earring,[0.11],"""small round earring""",50429,19,,[],22,,2,1,Male,English,Chrome,Windows,1080,1920,5.1943166666666665,
55,condition1,open,wooden,box_open_wood,"""open wooden box""",box,[0.08],"""wooden open box""",3065,20,,[],22,,2,1,Male,English,Chrome,Windows,1080,1920,5.1943166666666665,
55,condition1,young,bearded,man_young_bearded,"""young bearded man""",man,[0.12],"""bearded young man""",1604,21,,[],22,,2,1,Male,English,Chrome,Windows,1080,1920,5.1943166666666665,
55,condition1,open,cardboard,box_open_cardboard,"""cardboard open box""",box,[0.91],"""open cardboard box""",1274,22,,[],22,,2,1,Male,English,Chrome,Windows,1080,1920,5.1943166666666665,
55,condition1,bearded,glasses-wearing,man2_bearded_glassed,"""bearded glasses-wearing man""",man,[0.08],"""glasses-wearing bearded man""",872,23,,[],22,,2,1,Male,English,Chrome,Windows,1080,1920,5.1943166666666665,
55,condition1,wooden,low,table_wood_low,"""low wooden table""",table,[0.57],"""wooden low table""",968,24,,[],22,,2,1,Male,English,Chrome,Windows,1080,1920,5.1943166666666665,
55,condition1,curly,blond,hair_curly_blonde,"""blond curly hair""",hair,[0.82],"""curly blond hair""",987,25,,[],22,,2,1,Male,English,Chrome,Windows,1080,1920,5.1943166666666665,
55,condition1,red,glossy,nails_red_glossy,"""red glossy nails""",nails,[0.78],"""glossy red nails""",1733,26,,[],22,,2,1,Male,English,Chrome,Windows,1080,1920,5.1943166666666665,
55,condition1,wooden,clean,spoon_wooden_clean,"""clean wooden spoon""",spoon,[0.17],"""wooden clean spoon""",1140,27,,[],22,,2,1,Male,English,Chrome,Windows,1080,1920,5.1943166666666665,
55,condition1,big,round,earring_big_round,"""big round earring""",earring,[0.81],"""round big earring""",1818,28,,[],22,,2,1,Male,English,Chrome,Windows,1080,1920,5.1943166666666665,
55,condition1,red,matte,nails_red_matte,"""red matte nails""",nails,[0.83],"""matte red nails""",1643,29,,[],22,,2,1,Male,English,Chrome,Windows,1080,1920,5.1943166666666665,
55,condition1,wooden,high,table_wood_high,"""wooden high table""",table,[0.09],"""high wooden table""",2051,30,,[],22,,2,1,Male,English,Chrome,Windows,1080,1920,5.1943166666666665,
55,condition1,striped,red,frog_striped_red,"""striped red frog""",frog,[0.9],"""red striped frog""",2237,31,,[],22,,2,1,Male,English,Chrome,Windows,1080,1920,5.1943166666666665,
55,condition1,plastic,big,bottle_plastic_big,"""plastic big bottle""",bottle,[0.91],"""big plastic bottle""",3911,32,,[],22,,2,1,Male,English,Chrome,Windows,1080,1920,5.1943166666666665,
55,condition1,spotted,red,frog_spotted_red,"""spotted red frog""",frog,[0.09],"""red spotted frog""",24567,33,,[],22,,2,1,Male,English,Chrome,Windows,1080,1920,5.1943166666666665,
55,condition1,colored,square,picture_colored_square,"""square colored picture""",picture,[0.09],"""colored square picture""",6046,34,,[],22,,2,1,Male,English,Chrome,Windows,1080,1920,5.1943166666666665,
55,condition1,metal,dirty,spoon_metal_dirty,"""metal dirty spoon""",spoon,[0.98],"""dirty metal spoon""",2219,35,,[],22,,2,1,Male,English,Chrome,Windows,1080,1920,5.1943166666666665,
55,condition1,closed,cardboard,box_closed_cardboard,"""closed cardboard box""",box,[0.04],"""cardboard closed box""",24242,36,,[],22,,2,1,Male,English,Chrome,Windows,1080,1920,5.1943166666666665,
55,condition1,young,sad,woman_young_sad,"""sad young woman""",woman,[0.96],"""young sad woman""",1737,37,,[],22,,2,1,Male,English,Chrome,Windows,1080,1920,5.1943166666666665,
55,condition1,metal,low,table_metal_low,"""metal low table""",table,[0.08],"""low metal table""",2408,38,,[],22,,2,1,Male,English,Chrome,Windows,1080,1920,5.1943166666666665,
55,condition1,mustache-touting,hat-wearing,man2_mustached_hatted,"""mustache-touting hat-wearing man""",man,[0.82],"""hat-wearing mustache-touting man""",1782,39,,[],22,,2,1,Male,English,Chrome,Windows,1080,1920,5.1943166666666665,
55,condition1,old,sad,woman_old_sad,"""sad old woman""",woman,[0.22],"""old sad woman""",903,40,,[],22,,2,1,Male,English,Chrome,Windows,1080,1920,5.1943166666666665,
55,condition1,dry,red,shorts_dry_red,"""dry red shorts""",shorts,[0.79],"""red dry shorts""",891,41,,[],22,,2,1,Male,English,Chrome,Windows,1080,1920,5.1943166666666665,
55,condition1,black and white,rectangular,picture_bw_rectangular,"""black and white rectangular picture""",picture,[0.72],"""rectangular black and white picture""",1137,42,,[],22,,2,1,Male,English,Chrome,Windows,1080,1920,5.1943166666666665,
55,condition1,closed,wooden,box_closed_wood,"""wooden closed box""",box,[0.32],"""closed wooden box""",607,43,,[],22,,2,1,Male,English,Chrome,Windows,1080,1920,5.1943166666666665,
55,condition1,old,clean-shaven,man_old_cleanshaven,"""old clean-shaven man""",man,[0.7],"""clean-shaven old man""",823,44,,[],22,,2,1,Male,English,Chrome,Windows,1080,1920,5.1943166666666665,
55,condition1,short,blue,pencil_short_blue,"""short blue pencil""",pencil,[0.62],"""blue short pencil""",489,45,,[],22,,2,1,Male,English,Chrome,Windows,1080,1920,5.1943166666666665,
55,condition1,happy,fat,woman2_happy_fat,"""fat happy woman""",woman,[0.24],"""happy fat woman""",592,46,,[],22,,2,1,Male,English,Chrome,Windows,1080,1920,5.1943166666666665,
55,condition1,plastic,small,bottle_plastic_small,"""plastic small bottle""",bottle,[0.92],"""small plastic bottle""",1433,47,,[],22,,2,1,Male,English,Chrome,Windows,1080,1920,5.1943166666666665,
55,condition1,long,black,pencil_long_black,"""black long pencil""",pencil,[0.04],"""long black pencil""",1281,48,,[],22,,2,1,Male,English,Chrome,Windows,1080,1920,5.1943166666666665,
55,condition1,happy,skinny,woman2_happy_skinny,"""skinny happy woman""",woman,[0.88],"""happy skinny woman""",1774,49,,[],22,,2,1,Male,English,Chrome,Windows,1080,1920,5.1943166666666665,
55,condition1,wet,red,shorts_wet_red,"""wet red shorts""",shorts,[0.93],"""red wet shorts""",2188,50,,[],22,,2,1,Male,English,Chrome,Windows,1080,1920,5.1943166666666665,
55,condition1,spotted,green,frog_spotted_green,"""green spotted frog""",frog,[0.86],"""spotted green frog""",2824,51,,[],22,,2,1,Male,English,Chrome,Windows,1080,1920,5.1943166666666665,
55,condition1,old,happy,woman_old_happy,"""happy old woman""",woman,[0.91],"""old happy woman""",1031,52,,[],22,,2,1,Male,English,Chrome,Windows,1080,1920,5.1943166666666665,
55,condition1,sad,fat,woman2_sad_fat,"""fat sad woman""",woman,[0.11],"""sad fat woman""",984,53,,[],22,,2,1,Male,English,Chrome,Windows,1080,1920,5.1943166666666665,
55,condition1,striped,green,frog_striped_green,"""green striped frog""",frog,[0.59],"""striped green frog""",573,54,,[],22,,2,1,Male,English,Chrome,Windows,1080,1920,5.1943166666666665,
55,condition1,bearded,hat-wearing,man2_bearded_hatted,"""hat-wearing bearded man""",man,[0.06],"""bearded hat-wearing man""",1198,55,,[],22,,2,1,Male,English,Chrome,Windows,1080,1920,5.1943166666666665,
55,condition1,black and white,square,picture_bw_square,"""square black and white picture""",picture,[0.83],"""black and white square picture""",923,56,,[],22,,2,1,Male,English,Chrome,Windows,1080,1920,5.1943166666666665,
55,condition1,metal,high,table_metal_high,"""high metal table""",table,[0.62],"""metal high table""",987,57,,[],22,,2,1,Male,English,Chrome,Windows,1080,1920,5.1943166666666665,
55,condition1,black,glossy,nails_black_glossy,"""glossy black nails""",nails,[0.2],"""black glossy nails""",1055,58,,[],22,,2,1,Male,English,Chrome,Windows,1080,1920,5.1943166666666665,
55,condition1,long,blue,pencil_long_blue,"""blue long pencil""",pencil,[0.84],"""long blue pencil""",1687,59,,[],22,,2,1,Male,English,Chrome,Windows,1080,1920,5.1943166666666665,
55,condition1,colored,rectangular,picture_colored_rectangular,"""colored rectangular picture""",picture,[0.79],"""rectangular colored picture""",815,60,,[],22,,2,1,Male,English,Chrome,Windows,1080,1920,5.1943166666666665,
55,condition1,wet,green,shorts_wet_green,"""wet green shorts""",shorts,[0.12],"""green wet shorts""",729,61,,[],22,,2,1,Male,English,Chrome,Windows,1080,1920,5.1943166666666665,
55,condition1,sad,skinny,woman2_sad_skinny,"""skinny sad woman""",woman,[0.82],"""sad skinny woman""",1322,62,,[],22,,2,1,Male,English,Chrome,Windows,1080,1920,5.1943166666666665,
69,condition1,,,,,Susan,Susan,,0,1,bot_check,[],20,,2,1,Male,English,Chrome,Windows,1080,1920,3.8029333333333337,
69,condition1,curly,brown,hair_curly_brown,"""curly brown hair""",hair,[0],"""brown curly hair""",5739,3,,[],20,,2,1,Male,English,Chrome,Windows,1080,1920,3.8029333333333337,
69,condition1,black,matte,nails_black_matte,"""black matte nails""",nails,[0.1],"""matte black nails""",5944,4,,[],20,,2,1,Male,English,Chrome,Windows,1080,1920,3.8029333333333337,
69,condition1,big,triangular,earring_big_triangular,"""triangular big earring""",earring,[0.98],"""big triangular earring""",4046,5,,[],20,,2,1,Male,English,Chrome,Windows,1080,1920,3.8029333333333337,
69,condition1,straight,blond,hair_straight_blonde,"""straight blond hair""",hair,[0.05],"""blond straight hair""",2964,6,,[],20,,2,1,Male,English,Chrome,Windows,1080,1920,3.8029333333333337,
69,condition1,wet,green,shorts_wet_green,"""green wet shorts""",shorts,[0.97],"""wet green shorts""",2818,7,,[],20,,2,1,Male,English,Chrome,Windows,1080,1920,3.8029333333333337,
69,condition1,old,clean-shaven,man_old_cleanshaven,"""old clean-shaven man""",man,[0.96],"""clean-shaven old man""",2568,8,,[],20,,2,1,Male,English,Chrome,Windows,1080,1920,3.8029333333333337,
69,condition1,mustache-touting,glasses-wearing,man2_mustached_glassed,"""glasses-wearing mustache-touting man""",man,[0.04],"""mustache-touting glasses-wearing man""",7270,9,,[],20,,2,1,Male,English,Chrome,Windows,1080,1920,3.8029333333333337,
69,condition1,young,clean-shaven,man_young_cleanshaven,"""clean-shaven young man""",man,[0.05],"""young clean-shaven man""",3376,10,,[],20,,2,1,Male,English,Chrome,Windows,1080,1920,3.8029333333333337,
69,condition1,black and white,rectangular,picture_bw_rectangular,"""rectangular black and white picture""",picture,[0.93],"""black and white rectangular picture""",3988,11,,[],20,,2,1,Male,English,Chrome,Windows,1080,1920,3.8029333333333337,
69,condition1,happy,skinny,woman2_happy_skinny,"""happy skinny woman""",woman,[0.93],"""skinny happy woman""",8415,12,,[],20,,2,1,Male,English,Chrome,Windows,1080,1920,3.8029333333333337,
69,condition1,spotted,green,frog_spotted_green,"""spotted green frog""",frog,[0.95],"""green spotted frog""",2840,13,,[],20,,2,1,Male,English,Chrome,Windows,1080,1920,3.8029333333333337,
69,condition1,black,glossy,nails_black_glossy,"""glossy black nails""",nails,[0.03],"""black glossy nails""",4463,14,,[],20,,2,1,Male,English,Chrome,Windows,1080,1920,3.8029333333333337,
69,condition1,old,happy,woman_old_happy,"""old happy woman""",woman,[0.96],"""happy old woman""",3151,15,,[],20,,2,1,Male,English,Chrome,Windows,1080,1920,3.8029333333333337,
69,condition1,long,black,pencil_long_black,"""black long pencil""",pencil,[0.99],"""long black pencil""",2600,16,,[],20,,2,1,Male,English,Chrome,Windows,1080,1920,3.8029333333333337,
69,condition1,metal,clean,spoon_metal_clean,"""clean metal spoon""",spoon,[0.01],"""metal clean spoon""",2093,17,,[],20,,2,1,Male,English,Chrome,Windows,1080,1920,3.8029333333333337,
69,condition1,old,bearded,man_old_bearded,"""old bearded man""",man,[0.93],"""bearded old man""",2983,18,,[],20,,2,1,Male,English,Chrome,Windows,1080,1920,3.8029333333333337,
69,condition1,curly,blond,hair_curly_blonde,"""curly blond hair""",hair,[0.03],"""blond curly hair""",2674,19,,[],20,,2,1,Male,English,Chrome,Windows,1080,1920,3.8029333333333337,
69,condition1,sad,fat,woman2_sad_fat,"""fat sad woman""",woman,[0.97],"""sad fat woman""",2063,20,,[],20,,2,1,Male,English,Chrome,Windows,1080,1920,3.8029333333333337,
69,condition1,striped,green,frog_striped_green,"""green striped frog""",frog,[0.02],"""striped green frog""",5372,21,,[],20,,2,1,Male,English,Chrome,Windows,1080,1920,3.8029333333333337,
69,condition1,young,happy,woman_young_happy,"""happy young woman""",woman,[0.04],"""young happy woman""",2839,22,,[],20,,2,1,Male,English,Chrome,Windows,1080,1920,3.8029333333333337,
69,condition1,wooden,clean,spoon_wooden_clean,"""wooden clean spoon""",spoon,[0.97],"""clean wooden spoon""",2089,23,,[],20,,2,1,Male,English,Chrome,Windows,1080,1920,3.8029333333333337,
69,condition1,happy,fat,woman2_happy_fat,"""fat happy woman""",woman,[0.96],"""happy fat woman""",3264,24,,[],20,,2,1,Male,English,Chrome,Windows,1080,1920,3.8029333333333337,
69,condition1,glass,big,bottle_glass_big,"""glass big bottle""",bottle,[0.97],"""big glass bottle""",2642,25,,[],20,,2,1,Male,English,Chrome,Windows,1080,1920,3.8029333333333337,
69,condition1,metal,dirty,spoon_metal_dirty,"""metal dirty spoon""",spoon,[0.98],"""dirty metal spoon""",2605,26,,[],20,,2,1,Male,English,Chrome,Windows,1080,1920,3.8029333333333337,
69,condition1,red,glossy,nails_red_glossy,"""red glossy nails""",nails,[0.99],"""glossy red nails""",2276,27,,[],20,,2,1,Male,English,Chrome,Windows,1080,1920,3.8029333333333337,
69,condition1,sad,skinny,woman2_sad_skinny,"""sad skinny woman""",woman,[0.04],"""skinny sad woman""",2494,28,,[],20,,2,1,Male,English,Chrome,Windows,1080,1920,3.8029333333333337,
69,condition1,straight,brown,hair_straight_brown,"""brown straight hair""",hair,[0.96],"""straight brown hair""",2624,29,,[],20,,2,1,Male,English,Chrome,Windows,1080,1920,3.8029333333333337,
69,condition1,short,blue,pencil_short_blue,"""short blue pencil""",pencil,[0.05],"""blue short pencil""",3920,30,,[],20,,2,1,Male,English,Chrome,Windows,1080,1920,3.8029333333333337,
69,condition1,metal,low,table_metal_low,"""metal low table""",table,[0.92],"""low metal table""",2938,31,,[],20,,2,1,Male,English,Chrome,Windows,1080,1920,3.8029333333333337,
69,condition1,dry,green,shorts_dry_green,"""green dry shorts""",shorts,[0.93],"""dry green shorts""",3929,32,,[],20,,2,1,Male,English,Chrome,Windows,1080,1920,3.8029333333333337,
69,condition1,black and white,square,picture_bw_square,"""black and white square picture""",picture,[0.02],"""square black and white picture""",4574,33,,[],20,,2,1,Male,English,Chrome,Windows,1080,1920,3.8029333333333337,
69,condition1,metal,high,table_metal_high,"""metal high table""",table,[0.94],"""high metal table""",2546,34,,[],20,,2,1,Male,English,Chrome,Windows,1080,1920,3.8029333333333337,
69,condition1,old,sad,woman_old_sad,"""sad old woman""",woman,[0.06],"""old sad woman""",3758,35,,[],20,,2,1,Male,English,Chrome,Windows,1080,1920,3.8029333333333337,
69,condition1,open,cardboard,box_open_cardboard,"""cardboard open box""",box,[0.93],"""open cardboard box""",2236,36,,[],20,,2,1,Male,English,Chrome,Windows,1080,1920,3.8029333333333337,
69,condition1,striped,red,frog_striped_red,"""red striped frog""",frog,[0.02],"""striped red frog""",3562,37,,[],20,,2,1,Male,English,Chrome,Windows,1080,1920,3.8029333333333337,
69,condition1,spotted,red,frog_spotted_red,"""red spotted frog""",frog,[0.1],"""spotted red frog""",2248,38,,[],20,,2,1,Male,English,Chrome,Windows,1080,1920,3.8029333333333337,
69,condition1,closed,wooden,box_closed_wood,"""closed wooden box""",box,[0],"""wooden closed box""",6351,39,,[],20,,2,1,Male,English,Chrome,Windows,1080,1920,3.8029333333333337,
69,condition1,bearded,glasses-wearing,man2_bearded_glassed,"""glasses-wearing bearded man""",man,[0.04],"""bearded glasses-wearing man""",4729,40,,[],20,,2,1,Male,English,Chrome,Windows,1080,1920,3.8029333333333337,
69,condition1,open,wooden,box_open_wood,"""open wooden box""",box,[0.08],"""wooden open box""",2667,41,,[],20,,2,1,Male,English,Chrome,Windows,1080,1920,3.8029333333333337,
69,condition1,wet,red,shorts_wet_red,"""wet red shorts""",shorts,[0.95],"""red wet shorts""",1842,42,,[],20,,2,1,Male,English,Chrome,Windows,1080,1920,3.8029333333333337,
69,condition1,red,matte,nails_red_matte,"""matte red nails""",nails,[0.13],"""red matte nails""",1198,43,,[],20,,2,1,Male,English,Chrome,Windows,1080,1920,3.8029333333333337,
69,condition1,small,triangular,earring_small_triangular,"""small triangular earring""",earring,[0.95],"""triangular small earring""",1724,44,,[],20,,2,1,Male,English,Chrome,Windows,1080,1920,3.8029333333333337,
69,condition1,bearded,hat-wearing,man2_bearded_hatted,"""bearded hat-wearing man""",man,[0.94],"""hat-wearing bearded man""",1382,45,,[],20,,2,1,Male,English,Chrome,Windows,1080,1920,3.8029333333333337,
69,condition1,wooden,low,table_wood_low,"""low wooden table""",table,[0.06],"""wooden low table""",2465,46,,[],20,,2,1,Male,English,Chrome,Windows,1080,1920,3.8029333333333337,
69,condition1,colored,rectangular,picture_colored_rectangular,"""colored rectangular picture""",picture,[0.94],"""rectangular colored picture""",2866,47,,[],20,,2,1,Male,English,Chrome,Windows,1080,1920,3.8029333333333337,
69,condition1,young,bearded,man_young_bearded,"""young bearded man""",man,[0.97],"""bearded young man""",3669,48,,[],20,,2,1,Male,English,Chrome,Windows,1080,1920,3.8029333333333337,
69,condition1,long,blue,pencil_long_blue,"""long blue pencil""",pencil,[0.03],"""blue long pencil""",4394,49,,[],20,,2,1,Male,English,Chrome,Windows,1080,1920,3.8029333333333337,
69,condition1,dry,red,shorts_dry_red,"""dry red shorts""",shorts,[0.03],"""red dry shorts""",2768,50,,[],20,,2,1,Male,English,Chrome,Windows,1080,1920,3.8029333333333337,
69,condition1,colored,square,picture_colored_square,"""colored square picture""",picture,[0.97],"""square colored picture""",3182,51,,[],20,,2,1,Male,English,Chrome,Windows,1080,1920,3.8029333333333337,
69,condition1,closed,cardboard,box_closed_cardboard,"""closed cardboard box""",box,[0.04],"""cardboard closed box""",2377,52,,[],20,,2,1,Male,English,Chrome,Windows,1080,1920,3.8029333333333337,
69,condition1,small,round,earring_small_round,"""round small earring""",earring,[0.97],"""small round earring""",11558,53,,[],20,,2,1,Male,English,Chrome,Windows,1080,1920,3.8029333333333337,
69,condition1,plastic,small,bottle_plastic_small,"""small plastic bottle""",bottle,[0.05],"""plastic small bottle""",3108,54,,[],20,,2,1,Male,English,Chrome,Windows,1080,1920,3.8029333333333337,
69,condition1,short,black,pencil_short_black,"""black short pencil""",pencil,[0.93],"""short black pencil""",1594,55,,[],20,,2,1,Male,English,Chrome,Windows,1080,1920,3.8029333333333337,
69,condition1,young,sad,woman_young_sad,"""sad young woman""",woman,[0.03],"""young sad woman""",2222,56,,[],20,,2,1,Male,English,Chrome,Windows,1080,1920,3.8029333333333337,
69,condition1,big,round,earring_big_round,"""big round earring""",earring,[0.02],"""round big earring""",4313,57,,[],20,,2,1,Male,English,Chrome,Windows,1080,1920,3.8029333333333337,
69,condition1,glass,small,bottle_glass_small,"""small glass bottle""",bottle,[0.04],"""glass small bottle""",5343,58,,[],20,,2,1,Male,English,Chrome,Windows,1080,1920,3.8029333333333337,
69,condition1,plastic,big,bottle_plastic_big,"""big plastic bottle""",bottle,[0.05],"""plastic big bottle""",6362,59,,[],20,,2,1,Male,English,Chrome,Windows,1080,1920,3.8029333333333337,
69,condition1,wooden,dirty,spoon_wooden_dirty,"""dirty wooden spoon""",spoon,[0.06],"""wooden dirty spoon""",2426,60,,[],20,,2,1,Male,English,Chrome,Windows,1080,1920,3.8029333333333337,
69,condition1,wooden,high,table_wood_high,"""high wooden table""",table,[0.04],"""wooden high table""",2094,61,,[],20,,2,1,Male,English,Chrome,Windows,1080,1920,3.8029333333333337,
69,condition1,mustache-touting,hat-wearing,man2_mustached_hatted,"""hat-wearing mustache-touting man""",man,[0.09],"""mustache-touting hat-wearing man""",2172,62,,[],20,,2,1,Male,English,Chrome,Windows,1080,1920,3.8029333333333337,
77,condition1,,,,,Susan,Susan,,0,1,bot_check,[],26,,2,1,Male,English,Firefox,Windows,900,1600,6.833933333333333,
77,condition1,wet,green,shorts_wet_green,"""green wet shorts""",shorts,[1],"""wet green shorts""",10757,3,,[],26,,2,1,Male,English,Firefox,Windows,900,1600,6.833933333333333,
77,condition1,young,clean-shaven,man_young_cleanshaven,"""clean-shaven young man""",man,[0],"""young clean-shaven man""",13806,4,,[],26,,2,1,Male,English,Firefox,Windows,900,1600,6.833933333333333,
77,condition1,closed,wooden,box_closed_wood,"""closed wooden box""",box,[0],"""wooden closed box""",7783,5,,[],26,,2,1,Male,English,Firefox,Windows,900,1600,6.833933333333333,
77,condition1,closed,cardboard,box_closed_cardboard,"""cardboard closed box""",box,[1],"""closed cardboard box""",4039,6,,[],26,,2,1,Male,English,Firefox,Windows,900,1600,6.833933333333333,
77,condition1,curly,blond,hair_curly_blonde,"""blond curly hair""",hair,[1],"""curly blond hair""",5111,7,,[],26,,2,1,Male,English,Firefox,Windows,900,1600,6.833933333333333,
77,condition1,small,round,earring_small_round,"""round small earring""",earring,[1],"""small round earring""",5414,8,,[],26,,2,1,Male,English,Firefox,Windows,900,1600,6.833933333333333,
77,condition1,plastic,big,bottle_plastic_big,"""big plastic bottle""",bottle,[0],"""plastic big bottle""",4016,9,,[],26,,2,1,Male,English,Firefox,Windows,900,1600,6.833933333333333,
77,condition1,black and white,square,picture_bw_square,"""black and white square picture""",picture,[0],"""square black and white picture""",43206,10,,[],26,,2,1,Male,English,Firefox,Windows,900,1600,6.833933333333333,
77,condition1,curly,brown,hair_curly_brown,"""curly brown hair""",hair,[0],"""brown curly hair""",10918,11,,[],26,,2,1,Male,English,Firefox,Windows,900,1600,6.833933333333333,
77,condition1,old,sad,woman_old_sad,"""old sad woman""",woman,[1],"""sad old woman""",3048,12,,[],26,,2,1,Male,English,Firefox,Windows,900,1600,6.833933333333333,
77,condition1,old,bearded,man_old_bearded,"""bearded old man""",man,[0],"""old bearded man""",4568,13,,[],26,,2,1,Male,English,Firefox,Windows,900,1600,6.833933333333333,
77,condition1,spotted,green,frog_spotted_green,"""green spotted frog""",frog,[1],"""spotted green frog""",3575,14,,[],26,,2,1,Male,English,Firefox,Windows,900,1600,6.833933333333333,
77,condition1,open,wooden,box_open_wood,"""wooden open box""",box,[1],"""open wooden box""",4431,15,,[],26,,2,1,Male,English,Firefox,Windows,900,1600,6.833933333333333,
77,condition1,striped,green,frog_striped_green,"""green striped frog""",frog,[0],"""striped green frog""",13311,16,,[],26,,2,1,Male,English,Firefox,Windows,900,1600,6.833933333333333,
77,condition1,wooden,clean,spoon_wooden_clean,"""clean wooden spoon""",spoon,[0],"""wooden clean spoon""",4344,17,,[],26,,2,1,Male,English,Firefox,Windows,900,1600,6.833933333333333,
77,condition1,colored,square,picture_colored_square,"""colored square picture""",picture,[0.41],"""square colored picture""",14767,18,,[],26,,2,1,Male,English,Firefox,Windows,900,1600,6.833933333333333,
77,condition1,short,blue,pencil_short_blue,"""short blue pencil""",pencil,[0],"""blue short pencil""",6527,19,,[],26,,2,1,Male,English,Firefox,Windows,900,1600,6.833933333333333,
77,condition1,metal,dirty,spoon_metal_dirty,"""metal dirty spoon""",spoon,[1],"""dirty metal spoon""",5087,20,,[],26,,2,1,Male,English,Firefox,Windows,900,1600,6.833933333333333,
77,condition1,glass,big,bottle_glass_big,"""glass big bottle""",bottle,[1],"""big glass bottle""",2600,21,,[],26,,2,1,Male,English,Firefox,Windows,900,1600,6.833933333333333,
77,condition1,old,clean-shaven,man_old_cleanshaven,"""old clean-shaven man""",man,[1],"""clean-shaven old man""",3952,22,,[],26,,2,1,Male,English,Firefox,Windows,900,1600,6.833933333333333,
77,condition1,happy,skinny,woman2_happy_skinny,"""happy skinny woman""",woman,[0],"""skinny happy woman""",2935,23,,[],26,,2,1,Male,English,Firefox,Windows,900,1600,6.833933333333333,
77,condition1,young,sad,woman_young_sad,"""young sad woman""",woman,[1],"""sad young woman""",3087,24,,[],26,,2,1,Male,English,Firefox,Windows,900,1600,6.833933333333333,
77,condition1,wet,red,shorts_wet_red,"""red wet shorts""",shorts,[1],"""wet red shorts""",6009,25,,[],26,,2,1,Male,English,Firefox,Windows,900,1600,6.833933333333333,
77,condition1,metal,low,table_metal_low,"""metal low table""",table,[1],"""low metal table""",2438,26,,[],26,,2,1,Male,English,Firefox,Windows,900,1600,6.833933333333333,
77,condition1,wooden,high,table_wood_high,"""high wooden table""",table,[0],"""wooden high table""",3977,27,,[],26,,2,1,Male,English,Firefox,Windows,900,1600,6.833933333333333,
77,condition1,straight,brown,hair_straight_brown,"""brown straight hair""",hair,[1],"""straight brown hair""",10409,28,,[],26,,2,1,Male,English,Firefox,Windows,900,1600,6.833933333333333,
77,condition1,big,round,earring_big_round,"""big round earring""",earring,[0],"""round big earring""",4894,29,,[],26,,2,1,Male,English,Firefox,Windows,900,1600,6.833933333333333,
77,condition1,metal,high,table_metal_high,"""high metal table""",table,[0.51],"""metal high table""",23666,30,,[],26,,2,1,Male,English,Firefox,Windows,900,1600,6.833933333333333,
77,condition1,bearded,hat-wearing,man2_bearded_hatted,"""bearded hat-wearing man""",man,[0],"""hat-wearing bearded man""",9196,31,,[],26,,2,1,Male,English,Firefox,Windows,900,1600,6.833933333333333,
77,condition1,straight,blond,hair_straight_blonde,"""blond straight hair""",hair,[1],"""straight blond hair""",2359,32,,[],26,,2,1,Male,English,Firefox,Windows,900,1600,6.833933333333333,
77,condition1,metal,clean,spoon_metal_clean,"""clean metal spoon""",spoon,[0],"""metal clean spoon""",3182,33,,[],26,,2,1,Male,English,Firefox,Windows,900,1600,6.833933333333333,
77,condition1,red,matte,nails_red_matte,"""red matte nails""",nails,[1],"""matte red nails""",13527,34,,[],26,,2,1,Male,English,Firefox,Windows,900,1600,6.833933333333333,
77,condition1,mustache-touting,hat-wearing,man2_mustached_hatted,"""hat-wearing mustache-touting man""",man,[0.51],"""mustache-touting hat-wearing man""",10559,35,,[],26,,2,1,Male,English,Firefox,Windows,900,1600,6.833933333333333,
77,condition1,wooden,low,table_wood_low,"""wooden low table""",table,[1],"""low wooden table""",4480,36,,[],26,,2,1,Male,English,Firefox,Windows,900,1600,6.833933333333333,
77,condition1,sad,skinny,woman2_sad_skinny,"""skinny sad woman""",woman,[1],"""sad skinny woman""",3240,37,,[],26,,2,1,Male,English,Firefox,Windows,900,1600,6.833933333333333,
77,condition1,sad,fat,woman2_sad_fat,"""fat sad woman""",woman,[1],"""sad fat woman""",4784,38,,[],26,,2,1,Male,English,Firefox,Windows,900,1600,6.833933333333333,
77,condition1,young,bearded,man_young_bearded,"""young bearded man""",man,[0],"""bearded young man""",4687,39,,[],26,,2,1,Male,English,Firefox,Windows,900,1600,6.833933333333333,
77,condition1,red,glossy,nails_red_glossy,"""red glossy nails""",nails,[1],"""glossy red nails""",3592,40,,[],26,,2,1,Male,English,Firefox,Windows,900,1600,6.833933333333333,
77,condition1,long,blue,pencil_long_blue,"""long blue pencil""",pencil,[0],"""blue long pencil""",4384,41,,[],26,,2,1,Male,English,Firefox,Windows,900,1600,6.833933333333333,
77,condition1,dry,green,shorts_dry_green,"""green dry shorts""",shorts,[1],"""dry green shorts""",3320,42,,[],26,,2,1,Male,English,Firefox,Windows,900,1600,6.833933333333333,
77,condition1,bearded,glasses-wearing,man2_bearded_glassed,"""bearded glasses-wearing man""",man,[0.48],"""glasses-wearing bearded man""",12528,43,,[],26,,2,1,Male,English,Firefox,Windows,900,1600,6.833933333333333,
77,condition1,old,happy,woman_old_happy,"""old happy woman""",woman,[0],"""happy old woman""",4583,44,,[],26,,2,1,Male,English,Firefox,Windows,900,1600,6.833933333333333,
77,condition1,short,black,pencil_short_black,"""short black pencil""",pencil,[0],"""black short pencil""",5391,45,,[],26,,2,1,Male,English,Firefox,Windows,900,1600,6.833933333333333,
77,condition1,plastic,small,bottle_plastic_small,"""plastic small bottle""",bottle,[1],"""small plastic bottle""",2376,46,,[],26,,2,1,Male,English,Firefox,Windows,900,1600,6.833933333333333,
77,condition1,glass,small,bottle_glass_small,"""glass small bottle""",bottle,[1],"""small glass bottle""",2151,47,,[],26,,2,1,Male,English,Firefox,Windows,900,1600,6.833933333333333,
77,condition1,long,black,pencil_long_black,"""long black pencil""",pencil,[0],"""black long pencil""",2768,48,,[],26,,2,1,Male,English,Firefox,Windows,900,1600,6.833933333333333,
77,condition1,black,matte,nails_black_matte,"""matte black nails""",nails,[0.98],"""black matte nails""",7231,49,,[],26,,2,1,Male,English,Firefox,Windows,900,1600,6.833933333333333,
77,condition1,dry,red,shorts_dry_red,"""red dry shorts""",shorts,[1],"""dry red shorts""",3479,50,,[],26,,2,1,Male,English,Firefox,Windows,900,1600,6.833933333333333,
77,condition1,black and white,rectangular,picture_bw_rectangular,"""black and white rectangular picture""",picture,[0],"""rectangular black and white picture""",9344,51,,[],26,,2,1,Male,English,Firefox,Windows,900,1600,6.833933333333333,
77,condition1,young,happy,woman_young_happy,"""happy young woman""",woman,[1],"""young happy woman""",6487,52,,[],26,,2,1,Male,English,Firefox,Windows,900,1600,6.833933333333333,
77,condition1,spotted,red,frog_spotted_red,"""spotted red frog""",frog,[0],"""red spotted frog""",2376,53,,[],26,,2,1,Male,English,Firefox,Windows,900,1600,6.833933333333333,
77,condition1,striped,red,frog_striped_red,"""striped red frog""",frog,[1],"""red striped frog""",3031,54,,[],26,,2,1,Male,English,Firefox,Windows,900,1600,6.833933333333333,
77,condition1,mustache-touting,glasses-wearing,man2_mustached_glassed,"""mustache-touting glasses-wearing man""",man,[0],"""glasses-wearing mustache-touting man""",7382,55,,[],26,,2,1,Male,English,Firefox,Windows,900,1600,6.833933333333333,
77,condition1,small,triangular,earring_small_triangular,"""triangular small earring""",earring,[1],"""small triangular earring""",4257,56,,[],26,,2,1,Male,English,Firefox,Windows,900,1600,6.833933333333333,
77,condition1,open,cardboard,box_open_cardboard,"""open cardboard box""",box,[0],"""cardboard open box""",3253,57,,[],26,,2,1,Male,English,Firefox,Windows,900,1600,6.833933333333333,
77,condition1,wooden,dirty,spoon_wooden_dirty,"""dirty wooden spoon""",spoon,[0],"""wooden dirty spoon""",2706,58,,[],26,,2,1,Male,English,Firefox,Windows,900,1600,6.833933333333333,
77,condition1,big,triangular,earring_big_triangular,"""big triangular earring""",earring,[0],"""triangular big earring""",3800,59,,[],26,,2,1,Male,English,Firefox,Windows,900,1600,6.833933333333333,
77,condition1,happy,fat,woman2_happy_fat,"""happy fat woman""",woman,[1],"""fat happy woman""",2631,60,,[],26,,2,1,Male,English,Firefox,Windows,900,1600,6.833933333333333,
77,condition1,colored,rectangular,picture_colored_rectangular,"""rectangular colored picture""",picture,[0],"""colored rectangular picture""",9080,61,,[],26,,2,1,Male,English,Firefox,Windows,900,1600,6.833933333333333,
77,condition1,black,glossy,nails_black_glossy,"""glossy black nails""",nails,[0],"""black glossy nails""",4183,62,,[],26,,2,1,Male,English,Firefox,Windows,900,1600,6.833933333333333,
80,condition1,,,,,Linda,Linda,,0,1,bot_check,[],28,,1,1,Male,English,Firefox,Mac,800,1280,8.994783333333332,
80,condition1,small,round,earring_small_round,"""small round earring""",earring,[0],"""round small earring""",8298,3,,[],28,,1,1,Male,English,Firefox,Mac,800,1280,8.994783333333332,
80,condition1,old,bearded,man_old_bearded,"""old bearded man""",man,[0.8],"""bearded old man""",11569,4,,[],28,,1,1,Male,English,Firefox,Mac,800,1280,8.994783333333332,
80,condition1,straight,brown,hair_straight_brown,"""straight brown hair""",hair,[0.07],"""brown straight hair""",6664,5,,[],28,,1,1,Male,English,Firefox,Mac,800,1280,8.994783333333332,
80,condition1,glass,small,bottle_glass_small,"""small glass bottle""",bottle,[0.01],"""glass small bottle""",6608,6,,[],28,,1,1,Male,English,Firefox,Mac,800,1280,8.994783333333332,
80,condition1,black,glossy,nails_black_glossy,"""glossy black nails""",nails,[0.48],"""black glossy nails""",17270,7,,[],28,,1,1,Male,English,Firefox,Mac,800,1280,8.994783333333332,
80,condition1,open,wooden,box_open_wood,"""wooden open box""",box,[0.81],"""open wooden box""",15122,8,,[],28,,1,1,Male,English,Firefox,Mac,800,1280,8.994783333333332,
80,condition1,young,happy,woman_young_happy,"""happy young woman""",woman,[0],"""young happy woman""",7225,9,,[],28,,1,1,Male,English,Firefox,Mac,800,1280,8.994783333333332,
80,condition1,wooden,clean,spoon_wooden_clean,"""wooden clean spoon""",spoon,[0.93],"""clean wooden spoon""",7783,10,,[],28,,1,1,Male,English,Firefox,Mac,800,1280,8.994783333333332,
80,condition1,bearded,hat-wearing,man2_bearded_hatted,"""hat-wearing bearded man""",man,[0.03],"""bearded hat-wearing man""",11774,11,,[],28,,1,1,Male,English,Firefox,Mac,800,1280,8.994783333333332,
80,condition1,metal,high,table_metal_high,"""high metal table""",table,[0.08],"""metal high table""",18869,12,,[],28,,1,1,Male,English,Firefox,Mac,800,1280,8.994783333333332,
80,condition1,wet,green,shorts_wet_green,"""wet green shorts""",shorts,[0.05],"""green wet shorts""",9680,13,,[],28,,1,1,Male,English,Firefox,Mac,800,1280,8.994783333333332,
80,condition1,long,black,pencil_long_black,"""long black pencil""",pencil,[0.01],"""black long pencil""",4599,14,,[],28,,1,1,Male,English,Firefox,Mac,800,1280,8.994783333333332,
80,condition1,wooden,low,table_wood_low,"""low wooden table""",table,[0.04],"""wooden low table""",6774,15,,[],28,,1,1,Male,English,Firefox,Mac,800,1280,8.994783333333332,
80,condition1,dry,red,shorts_dry_red,"""red dry shorts""",shorts,[0.98],"""dry red shorts""",6311,16,,[],28,,1,1,Male,English,Firefox,Mac,800,1280,8.994783333333332,
80,condition1,spotted,green,frog_spotted_green,"""spotted green frog""",frog,[0.97],"""green spotted frog""",5856,17,,[],28,,1,1,Male,English,Firefox,Mac,800,1280,8.994783333333332,
80,condition1,open,cardboard,box_open_cardboard,"""open cardboard box""",box,[0],"""cardboard open box""",9517,18,,[],28,,1,1,Male,English,Firefox,Mac,800,1280,8.994783333333332,
80,condition1,curly,brown,hair_curly_brown,"""brown curly hair""",hair,[0.51],"""curly brown hair""",7568,19,,[],28,,1,1,Male,English,Firefox,Mac,800,1280,8.994783333333332,
80,condition1,glass,big,bottle_glass_big,"""glass big bottle""",bottle,[0.97],"""big glass bottle""",4834,20,,[],28,,1,1,Male,English,Firefox,Mac,800,1280,8.994783333333332,
80,condition1,straight,blond,hair_straight_blonde,"""blond straight hair""",hair,[0.97],"""straight blond hair""",7355,21,,[],28,,1,1,Male,English,Firefox,Mac,800,1280,8.994783333333332,
80,condition1,old,happy,woman_old_happy,"""happy old woman""",woman,[0.04],"""old happy woman""",5643,22,,[],28,,1,1,Male,English,Firefox,Mac,800,1280,8.994783333333332,
80,condition1,sad,fat,woman2_sad_fat,"""fat sad woman""",woman,[0.97],"""sad fat woman""",5797,23,,[],28,,1,1,Male,English,Firefox,Mac,800,1280,8.994783333333332,
80,condition1,mustache-touting,hat-wearing,man2_mustached_hatted,"""mustache-touting hat-wearing man""",man,[0.98],"""hat-wearing mustache-touting man""",11846,24,,[],28,,1,1,Male,English,Firefox,Mac,800,1280,8.994783333333332,
80,condition1,red,glossy,nails_red_glossy,"""glossy red nails""",nails,[0.51],"""red glossy nails""",13179,25,,[],28,,1,1,Male,English,Firefox,Mac,800,1280,8.994783333333332,
80,condition1,metal,low,table_metal_low,"""low metal table""",table,[0.01],"""metal low table""",5106,26,,[],28,,1,1,Male,English,Firefox,Mac,800,1280,8.994783333333332,
80,condition1,black,matte,nails_black_matte,"""matte black nails""",nails,[0.18],"""black matte nails""",12608,27,,[],28,,1,1,Male,English,Firefox,Mac,800,1280,8.994783333333332,
80,condition1,dry,green,shorts_dry_green,"""dry green shorts""",shorts,[0.07],"""green dry shorts""",17183,28,,[],28,,1,1,Male,English,Firefox,Mac,800,1280,8.994783333333332,
80,condition1,young,clean-shaven,man_young_cleanshaven,"""clean-shaven young man""",man,[0.67],"""young clean-shaven man""",8534,29,,[],28,,1,1,Male,English,Firefox,Mac,800,1280,8.994783333333332,
80,condition1,curly,blond,hair_curly_blonde,"""blond curly hair""",hair,[0.49],"""curly blond hair""",10229,30,,[],28,,1,1,Male,English,Firefox,Mac,800,1280,8.994783333333332,
80,condition1,sad,skinny,woman2_sad_skinny,"""sad skinny woman""",woman,[0.08],"""skinny sad woman""",8581,31,,[],28,,1,1,Male,English,Firefox,Mac,800,1280,8.994783333333332,
80,condition1,striped,red,frog_striped_red,"""red striped frog""",frog,[0.79],"""striped red frog""",12550,32,,[],28,,1,1,Male,English,Firefox,Mac,800,1280,8.994783333333332,
80,condition1,metal,dirty,spoon_metal_dirty,"""metal dirty spoon""",spoon,[0.98],"""dirty metal spoon""",7182,33,,[],28,,1,1,Male,English,Firefox,Mac,800,1280,8.994783333333332,
80,condition1,striped,green,frog_striped_green,"""green striped frog""",frog,[0.92],"""striped green frog""",6431,34,,[],28,,1,1,Male,English,Firefox,Mac,800,1280,8.994783333333332,
80,condition1,young,bearded,man_young_bearded,"""bearded young man""",man,[0.05],"""young bearded man""",7748,35,,[],28,,1,1,Male,English,Firefox,Mac,800,1280,8.994783333333332,
80,condition1,closed,wooden,box_closed_wood,"""wooden closed box""",box,[0.96],"""closed wooden box""",4783,36,,[],28,,1,1,Male,English,Firefox,Mac,800,1280,8.994783333333332,
80,condition1,closed,cardboard,box_closed_cardboard,"""closed cardboard box""",box,[0.02],"""cardboard closed box""",4718,37,,[],28,,1,1,Male,English,Firefox,Mac,800,1280,8.994783333333332,
80,condition1,wooden,dirty,spoon_wooden_dirty,"""dirty wooden spoon""",spoon,[0],"""wooden dirty spoon""",5653,38,,[],28,,1,1,Male,English,Firefox,Mac,800,1280,8.994783333333332,
80,condition1,metal,clean,spoon_metal_clean,"""clean metal spoon""",spoon,[0.03],"""metal clean spoon""",2881,39,,[],28,,1,1,Male,English,Firefox,Mac,800,1280,8.994783333333332,
80,condition1,old,clean-shaven,man_old_cleanshaven,"""clean-shaven old man""",man,[0.04],"""old clean-shaven man""",7768,40,,[],28,,1,1,Male,English,Firefox,Mac,800,1280,8.994783333333332,
80,condition1,colored,square,picture_colored_square,"""square colored picture""",picture,[0.53],"""colored square picture""",6999,41,,[],28,,1,1,Male,English,Firefox,Mac,800,1280,8.994783333333332,
80,condition1,short,black,pencil_short_black,"""short black pencil""",pencil,[0.02],"""black short pencil""",7472,42,,[],28,,1,1,Male,English,Firefox,Mac,800,1280,8.994783333333332,
80,condition1,wooden,high,table_wood_high,"""wooden high table""",table,[0.03],"""high wooden table""",5897,43,,[],28,,1,1,Male,English,Firefox,Mac,800,1280,8.994783333333332,
80,condition1,plastic,big,bottle_plastic_big,"""big plastic bottle""",bottle,[0.02],"""plastic big bottle""",3380,44,,[],28,,1,1,Male,English,Firefox,Mac,800,1280,8.994783333333332,
80,condition1,long,blue,pencil_long_blue,"""blue long pencil""",pencil,[0.99],"""long blue pencil""",8538,45,,[],28,,1,1,Male,English,Firefox,Mac,800,1280,8.994783333333332,
80,condition1,black and white,square,picture_bw_square,"""square black and white picture""",picture,[0.92],"""black and white square picture""",8986,46,,[],28,,1,1,Male,English,Firefox,Mac,800,1280,8.994783333333332,
80,condition1,red,matte,nails_red_matte,"""matte red nails""",nails,[0.14],"""red matte nails""",4556,47,,[],28,,1,1,Male,English,Firefox,Mac,800,1280,8.994783333333332,
80,condition1,small,triangular,earring_small_triangular,"""small triangular earring""",earring,[0.09],"""triangular small earring""",8780,48,,[],28,,1,1,Male,English,Firefox,Mac,800,1280,8.994783333333332,
80,condition1,spotted,red,frog_spotted_red,"""red spotted frog""",frog,[0.51],"""spotted red frog""",8925,49,,[],28,,1,1,Male,English,Firefox,Mac,800,1280,8.994783333333332,
80,condition1,black and white,rectangular,picture_bw_rectangular,"""rectangular black and white picture""",picture,[0.04],"""black and white rectangular picture""",6981,50,,[],28,,1,1,Male,English,Firefox,Mac,800,1280,8.994783333333332,
