workerid,proliferate.condition,adj,label,object,response,rt,slide_number_in_experiment,utterance,catch_trials,subject_information.age,subject_information.asses,subject_information.comments,subject_information.education,subject_information.enjoyment,subject_information.gender,subject_information.language,system.Browser,system.OS,system.screenH,system.screenW,time_in_minutes,error
100,condition1,,,Mary,Mary,0,1,bot_check,[],31,Yes,,3,1,Male,English,Chrome,Windows,1920,1080,3.6304666666666665,
100,condition1,low,table_metal_low,table,[0.46],11300,3,,[],31,Yes,,3,1,Male,English,Chrome,Windows,1920,1080,3.6304666666666665,
100,condition1,bearded,man_old_bearded,man,[0],8003,4,,[],31,Yes,,3,1,Male,English,Chrome,Windows,1920,1080,3.6304666666666665,
100,condition1,glass,bottle_glass_big,bottle,[0],3263,5,,[],31,Yes,,3,1,Male,English,Chrome,Windows,1920,1080,3.6304666666666665,
100,condition1,short,pencil_short_black,pencil,[1],6453,6,,[],31,Yes,,3,1,Male,English,Chrome,Windows,1920,1080,3.6304666666666665,
100,condition1,curly,hair_curly_blonde,hair,[0],5586,7,,[],31,Yes,,3,1,Male,English,Chrome,Windows,1920,1080,3.6304666666666665,
100,condition1,sad,woman_old_sad,woman,[0],7352,8,,[],31,Yes,,3,1,Male,English,Chrome,Windows,1920,1080,3.6304666666666665,
100,condition1,matte,nails_black_matte,nails,[0],3958,9,,[],31,Yes,,3,1,Male,English,Chrome,Windows,1920,1080,3.6304666666666665,
100,condition1,skinny,woman2_happy_skinny,woman,[1],2722,10,,[],31,Yes,,3,1,Male,English,Chrome,Windows,1920,1080,3.6304666666666665,
100,condition1,high,table_metal_high,table,[1],2253,11,,[],31,Yes,,3,1,Male,English,Chrome,Windows,1920,1080,3.6304666666666665,
100,condition1,colored,picture_colored_rectangular,picture,[0],3914,12,,[],31,Yes,,3,1,Male,English,Chrome,Windows,1920,1080,3.6304666666666665,
100,condition1,big,bottle_glass_big,bottle,[1],4419,13,,[],31,Yes,,3,1,Male,English,Chrome,Windows,1920,1080,3.6304666666666665,
100,condition1,young,man_young_bearded,man,[0.48],7195,14,,[],31,Yes,,3,1,Male,English,Chrome,Windows,1920,1080,3.6304666666666665,
100,condition1,glossy,nails_black_glossy,nails,[0],3000,15,,[],31,Yes,,3,1,Male,English,Chrome,Windows,1920,1080,3.6304666666666665,
100,condition1,wet,shorts_wet_green,shorts,[0],3612,16,,[],31,Yes,,3,1,Male,English,Chrome,Windows,1920,1080,3.6304666666666665,
100,condition1,square,picture_bw_square,picture,[0],3192,17,,[],31,Yes,,3,1,Male,English,Chrome,Windows,1920,1080,3.6304666666666665,
100,condition1,brown,hair_curly_brown,hair,[0.33],5373,18,,[],31,Yes,,3,1,Male,English,Chrome,Windows,1920,1080,3.6304666666666665,
100,condition1,wooden,spoon_wooden_clean,spoon,[0],3361,19,,[],31,Yes,,3,1,Male,English,Chrome,Windows,1920,1080,3.6304666666666665,
100,condition1,black,nails_black_glossy,nails,[0.22],3565,20,,[],31,Yes,,3,1,Male,English,Chrome,Windows,1920,1080,3.6304666666666665,
100,condition1,mustache-touting,man2_mustached_glassed,man,[0],4353,21,,[],31,Yes,,3,1,Male,English,Chrome,Windows,1920,1080,3.6304666666666665,
100,condition1,blue,pencil_long_blue,pencil,[0.3],8034,22,,[],31,Yes,,3,1,Male,English,Chrome,Windows,1920,1080,3.6304666666666665,
100,condition1,cardboard,box_closed_cardboard,box,[0],3829,23,,[],31,Yes,,3,1,Male,English,Chrome,Windows,1920,1080,3.6304666666666665,
100,condition1,straight,hair_straight_blond,hair,[0],2978,24,,[],31,Yes,,3,1,Male,English,Chrome,Windows,1920,1080,3.6304666666666665,
100,condition1,glasses-wearing,man2_bearded_glassed,man,[0],3833,25,,[],31,Yes,,3,1,Male,English,Chrome,Windows,1920,1080,3.6304666666666665,
100,condition1,closed,box_closed_cardboard,box,[0],6627,26,,[],31,Yes,,3,1,Male,English,Chrome,Windows,1920,1080,3.6304666666666665,
100,condition1,dirty,spoon_metal_dirty,spoon,[0.45],3043,27,,[],31,Yes,,3,1,Male,English,Chrome,Windows,1920,1080,3.6304666666666665,
100,condition1,black and white,picture_bw_rectangular,picture,[0],2997,28,,[],31,Yes,,3,1,Male,English,Chrome,Windows,1920,1080,3.6304666666666665,
100,condition1,small,bottle_glass_small,bottle,[1],3357,29,,[],31,Yes,,3,1,Male,English,Chrome,Windows,1920,1080,3.6304666666666665,
100,condition1,red,frog_spotted_red,frog,[0],2425,30,,[],31,Yes,,3,1,Male,English,Chrome,Windows,1920,1080,3.6304666666666665,
100,condition1,dry,shorts_dry_green,shorts,[0],2359,31,,[],31,Yes,,3,1,Male,English,Chrome,Windows,1920,1080,3.6304666666666665,
100,condition1,blond,hair_curly_blonde,hair,[0.23],2619,32,,[],31,Yes,,3,1,Male,English,Chrome,Windows,1920,1080,3.6304666666666665,
100,condition1,long,pencil_long_black,pencil,[0.99],2584,33,,[],31,Yes,,3,1,Male,English,Chrome,Windows,1920,1080,3.6304666666666665,
100,condition1,clean-shaven,man_old_cleanshaven,man,[0],4311,34,,[],31,Yes,,3,1,Male,English,Chrome,Windows,1920,1080,3.6304666666666665,
100,condition1,green,frog_spotted_green,frog,[0.2],2186,35,,[],31,Yes,,3,1,Male,English,Chrome,Windows,1920,1080,3.6304666666666665,
100,condition1,happy,woman_old_happy,woman,[0.5],1899,36,,[],31,Yes,,3,1,Male,English,Chrome,Windows,1920,1080,3.6304666666666665,
100,condition1,plastic,bottle_plastic_big,bottle,[0],2301,37,,[],31,Yes,,3,1,Male,English,Chrome,Windows,1920,1080,3.6304666666666665,
100,condition1,spotted,frog_spotted_green,frog,[0],2349,38,,[],31,Yes,,3,1,Male,English,Chrome,Windows,1920,1080,3.6304666666666665,
100,condition1,metal,spoon_metal_clean,spoon,[0],2390,39,,[],31,Yes,,3,1,Male,English,Chrome,Windows,1920,1080,3.6304666666666665,
100,condition1,old,man_old_bearded,man,[0.22],2015,40,,[],31,Yes,,3,1,Male,English,Chrome,Windows,1920,1080,3.6304666666666665,
100,condition1,open,box_open_cardboard,box,[0],2744,41,,[],31,Yes,,3,1,Male,English,Chrome,Windows,1920,1080,3.6304666666666665,
100,condition1,round,earring_big_round,earring,[0.22],5850,42,,[],31,Yes,,3,1,Male,English,Chrome,Windows,1920,1080,3.6304666666666665,
100,condition1,fat,woman2_happy_fat,woman,[1],7349,43,,[],31,Yes,,3,1,Male,English,Chrome,Windows,1920,1080,3.6304666666666665,
100,condition1,striped,frog_striped_green,frog,[0],4219,44,,[],31,Yes,,3,1,Male,English,Chrome,Windows,1920,1080,3.6304666666666665,
100,condition1,clean,spoon_metal_clean,spoon,[0],1903,45,,[],31,Yes,,3,1,Male,English,Chrome,Windows,1920,1080,3.6304666666666665,
100,condition1,rectangular,picture_bw_rectangular,picture,[0.45],2936,46,,[],31,Yes,,3,1,Male,English,Chrome,Windows,1920,1080,3.6304666666666665,
100,condition1,triangular,earring_big_triangular,earring,[0],3123,47,,[],31,Yes,,3,1,Male,English,Chrome,Windows,1920,1080,3.6304666666666665,
100,condition1,hat-wearing,man2_bearded_hatted,man,[0],4816,48,,[],31,Yes,,3,1,Male,English,Chrome,Windows,1920,1080,3.6304666666666665,
110,condition1,,,Jennifer,Jennifer,0,1,bot_check,[],32,Yes,it was analytical and interesting experience.,4,2,Male,English,Firefox,Windows,720,1280,5.675716666666666,
110,condition1,small,bottle_glass_small,bottle,[0.82],23476,3,,[],32,Yes,it was analytical and interesting experience.,4,2,Male,English,Firefox,Windows,720,1280,5.675716666666666,
110,condition1,closed,box_closed_cardboard,box,[0.27],11120,4,,[],32,Yes,it was analytical and interesting experience.,4,2,Male,English,Firefox,Windows,720,1280,5.675716666666666,
110,condition1,high,table_metal_high,table,[0.37],5879,5,,[],32,Yes,it was analytical and interesting experience.,4,2,Male,English,Firefox,Windows,720,1280,5.675716666666666,
110,condition1,young,man_young_bearded,man,[0.36],3504,6,,[],32,Yes,it was analytical and interesting experience.,4,2,Male,English,Firefox,Windows,720,1280,5.675716666666666,
110,condition1,bearded,man_old_bearded,man,[0.34],5896,7,,[],32,Yes,it was analytical and interesting experience.,4,2,Male,English,Firefox,Windows,720,1280,5.675716666666666,
110,condition1,dirty,spoon_metal_dirty,spoon,[0.78],13784,8,,[],32,Yes,it was analytical and interesting experience.,4,2,Male,English,Firefox,Windows,720,1280,5.675716666666666,
110,condition1,black,nails_black_glossy,nails,[0.17],5695,9,,[],32,Yes,it was analytical and interesting experience.,4,2,Male,English,Firefox,Windows,720,1280,5.675716666666666,
110,condition1,brown,hair_curly_brown,hair,[0.69],6592,10,,[],32,Yes,it was analytical and interesting experience.,4,2,Male,English,Firefox,Windows,720,1280,5.675716666666666,
110,condition1,wet,shorts_wet_green,shorts,[0.23],3384,11,,[],32,Yes,it was analytical and interesting experience.,4,2,Male,English,Firefox,Windows,720,1280,5.675716666666666,
110,condition1,blue,pencil_long_blue,pencil,[0.24],3671,12,,[],32,Yes,it was analytical and interesting experience.,4,2,Male,English,Firefox,Windows,720,1280,5.675716666666666,
110,condition1,rectangular,picture_bw_rectangular,picture,[0.31],5049,13,,[],32,Yes,it was analytical and interesting experience.,4,2,Male,English,Firefox,Windows,720,1280,5.675716666666666,
110,condition1,triangular,earring_big_triangular,earring,[0.77],4632,14,,[],32,Yes,it was analytical and interesting experience.,4,2,Male,English,Firefox,Windows,720,1280,5.675716666666666,
110,condition1,glasses-wearing,man2_bearded_glassed,man,[0.19],3504,15,,[],32,Yes,it was analytical and interesting experience.,4,2,Male,English,Firefox,Windows,720,1280,5.675716666666666,
110,condition1,hat-wearing,man2_bearded_hatted,man,[0.29],5879,16,,[],32,Yes,it was analytical and interesting experience.,4,2,Male,English,Firefox,Windows,720,1280,5.675716666666666,
110,condition1,glass,bottle_glass_big,bottle,[0.26],4512,17,,[],32,Yes,it was analytical and interesting experience.,4,2,Male,English,Firefox,Windows,720,1280,5.675716666666666,
110,condition1,curly,hair_curly_blonde,hair,[0.24],4904,18,,[],32,Yes,it was analytical and interesting experience.,4,2,Male,English,Firefox,Windows,720,1280,5.675716666666666,
110,condition1,green,frog_spotted_green,frog,[0.21],6000,19,,[],32,Yes,it was analytical and interesting experience.,4,2,Male,English,Firefox,Windows,720,1280,5.675716666666666,
110,condition1,dry,shorts_dry_green,shorts,[0.21],3880,20,,[],32,Yes,it was analytical and interesting experience.,4,2,Male,English,Firefox,Windows,720,1280,5.675716666666666,
110,condition1,straight,hair_straight_blond,hair,[0.75],5960,21,,[],32,Yes,it was analytical and interesting experience.,4,2,Male,English,Firefox,Windows,720,1280,5.675716666666666,
110,condition1,round,earring_big_round,earring,[0.25],5104,22,,[],32,Yes,it was analytical and interesting experience.,4,2,Male,English,Firefox,Windows,720,1280,5.675716666666666,
110,condition1,black and white,picture_bw_rectangular,picture,[0.16],4424,23,,[],32,Yes,it was analytical and interesting experience.,4,2,Male,English,Firefox,Windows,720,1280,5.675716666666666,
110,condition1,metal,spoon_metal_clean,spoon,[0.26],6032,24,,[],32,Yes,it was analytical and interesting experience.,4,2,Male,English,Firefox,Windows,720,1280,5.675716666666666,
110,condition1,colored,picture_colored_rectangular,picture,[0.25],4512,25,,[],32,Yes,it was analytical and interesting experience.,4,2,Male,English,Firefox,Windows,720,1280,5.675716666666666,
110,condition1,matte,nails_black_matte,nails,[0.31],6832,26,,[],32,Yes,it was analytical and interesting experience.,4,2,Male,English,Firefox,Windows,720,1280,5.675716666666666,
110,condition1,short,pencil_short_black,pencil,[0.78],4295,27,,[],32,Yes,it was analytical and interesting experience.,4,2,Male,English,Firefox,Windows,720,1280,5.675716666666666,
110,condition1,old,man_old_bearded,man,[0.67],3871,28,,[],32,Yes,it was analytical and interesting experience.,4,2,Male,English,Firefox,Windows,720,1280,5.675716666666666,
110,condition1,fat,woman2_happy_fat,woman,[0.66],4008,29,,[],32,Yes,it was analytical and interesting experience.,4,2,Male,English,Firefox,Windows,720,1280,5.675716666666666,
110,condition1,sad,woman_old_sad,woman,[0.21],4920,30,,[],32,Yes,it was analytical and interesting experience.,4,2,Male,English,Firefox,Windows,720,1280,5.675716666666666,
110,condition1,happy,woman_old_happy,woman,[0.27],5359,31,,[],32,Yes,it was analytical and interesting experience.,4,2,Male,English,Firefox,Windows,720,1280,5.675716666666666,
110,condition1,plastic,bottle_plastic_big,bottle,[0.25],3873,32,,[],32,Yes,it was analytical and interesting experience.,4,2,Male,English,Firefox,Windows,720,1280,5.675716666666666,
110,condition1,wooden,spoon_wooden_clean,spoon,[0.28],4320,33,,[],32,Yes,it was analytical and interesting experience.,4,2,Male,English,Firefox,Windows,720,1280,5.675716666666666,
110,condition1,mustache-touting,man2_mustached_glassed,man,[0.22],5336,34,,[],32,Yes,it was analytical and interesting experience.,4,2,Male,English,Firefox,Windows,720,1280,5.675716666666666,
110,condition1,square,picture_bw_square,picture,[0.14],4328,35,,[],32,Yes,it was analytical and interesting experience.,4,2,Male,English,Firefox,Windows,720,1280,5.675716666666666,
110,condition1,clean,spoon_metal_clean,spoon,[0.22],8152,36,,[],32,Yes,it was analytical and interesting experience.,4,2,Male,English,Firefox,Windows,720,1280,5.675716666666666,
110,condition1,open,box_open_cardboard,box,[0.29],5560,37,,[],32,Yes,it was analytical and interesting experience.,4,2,Male,English,Firefox,Windows,720,1280,5.675716666666666,
110,condition1,red,frog_spotted_red,frog,[0.25],4072,38,,[],32,Yes,it was analytical and interesting experience.,4,2,Male,English,Firefox,Windows,720,1280,5.675716666666666,
110,condition1,striped,frog_striped_green,frog,[0.3],4912,39,,[],32,Yes,it was analytical and interesting experience.,4,2,Male,English,Firefox,Windows,720,1280,5.675716666666666,
110,condition1,glossy,nails_black_glossy,nails,[0.73],5440,40,,[],32,Yes,it was analytical and interesting experience.,4,2,Male,English,Firefox,Windows,720,1280,5.675716666666666,
110,condition1,skinny,woman2_happy_skinny,woman,[0.6],3712,41,,[],32,Yes,it was analytical and interesting experience.,4,2,Male,English,Firefox,Windows,720,1280,5.675716666666666,
110,condition1,low,table_metal_low,table,[0.74],4360,42,,[],32,Yes,it was analytical and interesting experience.,4,2,Male,English,Firefox,Windows,720,1280,5.675716666666666,
110,condition1,spotted,frog_spotted_green,frog,[0.68],4880,43,,[],32,Yes,it was analytical and interesting experience.,4,2,Male,English,Firefox,Windows,720,1280,5.675716666666666,
110,condition1,clean-shaven,man_old_cleanshaven,man,[0.16],4128,44,,[],32,Yes,it was analytical and interesting experience.,4,2,Male,English,Firefox,Windows,720,1280,5.675716666666666,
110,condition1,big,bottle_glass_big,bottle,[0.78],4560,45,,[],32,Yes,it was analytical and interesting experience.,4,2,Male,English,Firefox,Windows,720,1280,5.675716666666666,
110,condition1,long,pencil_long_black,pencil,[0.68],4496,46,,[],32,Yes,it was analytical and interesting experience.,4,2,Male,English,Firefox,Windows,720,1280,5.675716666666666,
110,condition1,blond,hair_curly_blonde,hair,[0.63],8111,47,,[],32,Yes,it was analytical and interesting experience.,4,2,Male,English,Firefox,Windows,720,1280,5.675716666666666,
110,condition1,cardboard,box_closed_cardboard,box,[0.26],3598,48,,[],32,Yes,it was analytical and interesting experience.,4,2,Male,English,Firefox,Windows,720,1280,5.675716666666666,
109,condition1,,,Elizabeth,Elizabeth,0,1,bot_check,[],25,Yes,,4,2,Female,English,Chrome,Windows,1080,1920,2.648416666666667,
109,condition1,striped,frog_striped_green,frog,[0.31],16367,3,,[],25,Yes,,4,2,Female,English,Chrome,Windows,1080,1920,2.648416666666667,
109,condition1,wet,shorts_wet_green,shorts,[0.1],3440,4,,[],25,Yes,,4,2,Female,English,Chrome,Windows,1080,1920,2.648416666666667,
109,condition1,dry,shorts_dry_green,shorts,[0.16],3328,5,,[],25,Yes,,4,2,Female,English,Chrome,Windows,1080,1920,2.648416666666667,
109,condition1,short,pencil_short_black,pencil,[0.77],5376,6,,[],25,Yes,,4,2,Female,English,Chrome,Windows,1080,1920,2.648416666666667,
109,condition1,low,table_metal_low,table,[0.78],2864,7,,[],25,Yes,,4,2,Female,English,Chrome,Windows,1080,1920,2.648416666666667,
109,condition1,plastic,bottle_plastic_big,bottle,[0.1],3216,8,,[],25,Yes,,4,2,Female,English,Chrome,Windows,1080,1920,2.648416666666667,
109,condition1,bearded,man_old_bearded,man,[0.06],2528,9,,[],25,Yes,,4,2,Female,English,Chrome,Windows,1080,1920,2.648416666666667,
109,condition1,dirty,spoon_metal_dirty,spoon,[0.05],2944,10,,[],25,Yes,,4,2,Female,English,Chrome,Windows,1080,1920,2.648416666666667,
109,condition1,open,box_open_cardboard,box,[0.07],2080,11,,[],25,Yes,,4,2,Female,English,Chrome,Windows,1080,1920,2.648416666666667,
109,condition1,spotted,frog_spotted_green,frog,[0.07],2632,12,,[],25,Yes,,4,2,Female,English,Chrome,Windows,1080,1920,2.648416666666667,
109,condition1,red,frog_spotted_red,frog,[0.13],2648,13,,[],25,Yes,,4,2,Female,English,Chrome,Windows,1080,1920,2.648416666666667,
109,condition1,fat,woman2_happy_fat,woman,[0.86],3096,14,,[],25,Yes,,4,2,Female,English,Chrome,Windows,1080,1920,2.648416666666667,
109,condition1,glass,bottle_glass_big,bottle,[0.07],2472,15,,[],25,Yes,,4,2,Female,English,Chrome,Windows,1080,1920,2.648416666666667,
109,condition1,big,bottle_glass_big,bottle,[0.85],3328,16,,[],25,Yes,,4,2,Female,English,Chrome,Windows,1080,1920,2.648416666666667,
109,condition1,round,earring_big_round,earring,[0.07],2864,17,,[],25,Yes,,4,2,Female,English,Chrome,Windows,1080,1920,2.648416666666667,
109,condition1,colored,picture_colored_rectangular,picture,[0.09],2768,18,,[],25,Yes,,4,2,Female,English,Chrome,Windows,1080,1920,2.648416666666667,
109,condition1,black and white,picture_bw_rectangular,picture,[0.06],2928,19,,[],25,Yes,,4,2,Female,English,Chrome,Windows,1080,1920,2.648416666666667,
109,condition1,long,pencil_long_black,pencil,[0.9],2680,20,,[],25,Yes,,4,2,Female,English,Chrome,Windows,1080,1920,2.648416666666667,
109,condition1,wooden,spoon_wooden_clean,spoon,[0.08],2792,21,,[],25,Yes,,4,2,Female,English,Chrome,Windows,1080,1920,2.648416666666667,
109,condition1,closed,box_closed_cardboard,box,[0.06],2168,22,,[],25,Yes,,4,2,Female,English,Chrome,Windows,1080,1920,2.648416666666667,
109,condition1,green,frog_spotted_green,frog,[0.11],2112,23,,[],25,Yes,,4,2,Female,English,Chrome,Windows,1080,1920,2.648416666666667,
109,condition1,young,man_young_bearded,man,[0.15],3168,24,,[],25,Yes,,4,2,Female,English,Chrome,Windows,1080,1920,2.648416666666667,
109,condition1,triangular,earring_big_triangular,earring,[0.12],2344,25,,[],25,Yes,,4,2,Female,English,Chrome,Windows,1080,1920,2.648416666666667,
109,condition1,small,bottle_glass_small,bottle,[0.9],2544,26,,[],25,Yes,,4,2,Female,English,Chrome,Windows,1080,1920,2.648416666666667,
109,condition1,high,table_metal_high,table,[0.86],3720,27,,[],25,Yes,,4,2,Female,English,Chrome,Windows,1080,1920,2.648416666666667,
109,condition1,glossy,nails_black_glossy,nails,[0.06],2344,28,,[],25,Yes,,4,2,Female,English,Chrome,Windows,1080,1920,2.648416666666667,
109,condition1,square,picture_bw_square,picture,[0.11],3344,29,,[],25,Yes,,4,2,Female,English,Chrome,Windows,1080,1920,2.648416666666667,
109,condition1,black,nails_black_glossy,nails,[0.08],2344,30,,[],25,Yes,,4,2,Female,English,Chrome,Windows,1080,1920,2.648416666666667,
109,condition1,skinny,woman2_happy_skinny,woman,[0.89],2608,31,,[],25,Yes,,4,2,Female,English,Chrome,Windows,1080,1920,2.648416666666667,
109,condition1,mustache-touting,man2_mustached_glassed,man,[0.07],4240,32,,[],25,Yes,,4,2,Female,English,Chrome,Windows,1080,1920,2.648416666666667,
109,condition1,rectangular,picture_bw_rectangular,picture,[0.08],2096,33,,[],25,Yes,,4,2,Female,English,Chrome,Windows,1080,1920,2.648416666666667,
109,condition1,brown,hair_curly_brown,hair,[0.04],1896,34,,[],25,Yes,,4,2,Female,English,Chrome,Windows,1080,1920,2.648416666666667,
109,condition1,curly,hair_curly_blonde,hair,[0.09],1688,35,,[],25,Yes,,4,2,Female,English,Chrome,Windows,1080,1920,2.648416666666667,
109,condition1,clean,spoon_metal_clean,spoon,[0.07],1864,36,,[],25,Yes,,4,2,Female,English,Chrome,Windows,1080,1920,2.648416666666667,
109,condition1,straight,hair_straight_blond,hair,[0.08],1576,37,,[],25,Yes,,4,2,Female,English,Chrome,Windows,1080,1920,2.648416666666667,
109,condition1,matte,nails_black_matte,nails,[0.08],1656,38,,[],25,Yes,,4,2,Female,English,Chrome,Windows,1080,1920,2.648416666666667,
109,condition1,old,man_old_bearded,man,[0.09],2024,39,,[],25,Yes,,4,2,Female,English,Chrome,Windows,1080,1920,2.648416666666667,
109,condition1,hat-wearing,man2_bearded_hatted,man,[0.08],2352,40,,[],25,Yes,,4,2,Female,English,Chrome,Windows,1080,1920,2.648416666666667,
109,condition1,happy,woman_old_happy,woman,[0.82],2648,41,,[],25,Yes,,4,2,Female,English,Chrome,Windows,1080,1920,2.648416666666667,
109,condition1,metal,spoon_metal_clean,spoon,[0.09],1784,42,,[],25,Yes,,4,2,Female,English,Chrome,Windows,1080,1920,2.648416666666667,
109,condition1,blond,hair_curly_blonde,hair,[0.09],1576,43,,[],25,Yes,,4,2,Female,English,Chrome,Windows,1080,1920,2.648416666666667,
109,condition1,blue,pencil_long_blue,pencil,[0.07],2664,44,,[],25,Yes,,4,2,Female,English,Chrome,Windows,1080,1920,2.648416666666667,
109,condition1,clean-shaven,man_old_cleanshaven,man,[0.09],2448,45,,[],25,Yes,,4,2,Female,English,Chrome,Windows,1080,1920,2.648416666666667,
109,condition1,sad,woman_old_sad,woman,[0.86],3904,46,,[],25,Yes,,4,2,Female,English,Chrome,Windows,1080,1920,2.648416666666667,
109,condition1,cardboard,box_closed_cardboard,box,[0.06],1696,47,,[],25,Yes,,4,2,Female,English,Chrome,Windows,1080,1920,2.648416666666667,
109,condition1,glasses-wearing,man2_bearded_glassed,man,[0.07],2240,48,,[],25,Yes,,4,2,Female,English,Chrome,Windows,1080,1920,2.648416666666667,
104,condition1,,,Linda,Linda,0,1,bot_check,[],22,Confused,,2,1,Female,English,Chrome,Mac,900,1440,4.93065,
104,condition1,black,nails_black_glossy,nails,[0.38],11731,3,,[],22,Confused,,2,1,Female,English,Chrome,Mac,900,1440,4.93065,
104,condition1,glass,bottle_glass_big,bottle,[0],35799,4,,[],22,Confused,,2,1,Female,English,Chrome,Mac,900,1440,4.93065,
104,condition1,open,box_open_cardboard,box,[0.1],6206,5,,[],22,Confused,,2,1,Female,English,Chrome,Mac,900,1440,4.93065,
104,condition1,cardboard,box_closed_cardboard,box,[0.33],5527,6,,[],22,Confused,,2,1,Female,English,Chrome,Mac,900,1440,4.93065,
104,condition1,clean,spoon_metal_clean,spoon,[0.1],6385,7,,[],22,Confused,,2,1,Female,English,Chrome,Mac,900,1440,4.93065,
104,condition1,happy,woman_old_happy,woman,[0.76],3406,8,,[],22,Confused,,2,1,Female,English,Chrome,Mac,900,1440,4.93065,
104,condition1,glasses-wearing,man2_bearded_glassed,man,[0],3673,9,,[],22,Confused,,2,1,Female,English,Chrome,Mac,900,1440,4.93065,
104,condition1,plastic,bottle_plastic_big,bottle,[0.56],6474,10,,[],22,Confused,,2,1,Female,English,Chrome,Mac,900,1440,4.93065,
104,condition1,short,pencil_short_black,pencil,[0.21],5083,11,,[],22,Confused,,2,1,Female,English,Chrome,Mac,900,1440,4.93065,
104,condition1,old,man_old_bearded,man,[0.62],5017,12,,[],22,Confused,,2,1,Female,English,Chrome,Mac,900,1440,4.93065,
104,condition1,young,man_young_bearded,man,[0.35],4968,13,,[],22,Confused,,2,1,Female,English,Chrome,Mac,900,1440,4.93065,
104,condition1,blond,hair_curly_blonde,hair,[0.94],5276,14,,[],22,Confused,,2,1,Female,English,Chrome,Mac,900,1440,4.93065,
104,condition1,high,table_metal_high,table,[0.49],3480,15,,[],22,Confused,,2,1,Female,English,Chrome,Mac,900,1440,4.93065,
104,condition1,mustache-touting,man2_mustached_glassed,man,[0.45],25994,16,,[],22,Confused,,2,1,Female,English,Chrome,Mac,900,1440,4.93065,
104,condition1,clean-shaven,man_old_cleanshaven,man,[0.32],4978,17,,[],22,Confused,,2,1,Female,English,Chrome,Mac,900,1440,4.93065,
104,condition1,long,pencil_long_black,pencil,[0.27],4604,18,,[],22,Confused,,2,1,Female,English,Chrome,Mac,900,1440,4.93065,
104,condition1,blue,pencil_long_blue,pencil,[0.92],2719,19,,[],22,Confused,,2,1,Female,English,Chrome,Mac,900,1440,4.93065,
104,condition1,wet,shorts_wet_green,shorts,[0.61],7560,20,,[],22,Confused,,2,1,Female,English,Chrome,Mac,900,1440,4.93065,
104,condition1,brown,hair_curly_brown,hair,[0.98],3179,21,,[],22,Confused,,2,1,Female,English,Chrome,Mac,900,1440,4.93065,
104,condition1,matte,nails_black_matte,nails,[0.61],5221,22,,[],22,Confused,,2,1,Female,English,Chrome,Mac,900,1440,4.93065,
104,condition1,square,picture_bw_square,picture,[0.86],3844,23,,[],22,Confused,,2,1,Female,English,Chrome,Mac,900,1440,4.93065,
104,condition1,metal,spoon_metal_clean,spoon,[0.17],8588,24,,[],22,Confused,,2,1,Female,English,Chrome,Mac,900,1440,4.93065,
104,condition1,round,earring_big_round,earring,[0.83],4152,25,,[],22,Confused,,2,1,Female,English,Chrome,Mac,900,1440,4.93065,
104,condition1,low,table_metal_low,table,[0.12],3415,26,,[],22,Confused,,2,1,Female,English,Chrome,Mac,900,1440,4.93065,
104,condition1,sad,woman_old_sad,woman,[0.93],2420,27,,[],22,Confused,,2,1,Female,English,Chrome,Mac,900,1440,4.93065,
104,condition1,closed,box_closed_cardboard,box,[0.32],2502,28,,[],22,Confused,,2,1,Female,English,Chrome,Mac,900,1440,4.93065,
104,condition1,hat-wearing,man2_bearded_hatted,man,[0],3052,29,,[],22,Confused,,2,1,Female,English,Chrome,Mac,900,1440,4.93065,
104,condition1,bearded,man_old_bearded,man,[0],2735,30,,[],22,Confused,,2,1,Female,English,Chrome,Mac,900,1440,4.93065,
104,condition1,glossy,nails_black_glossy,nails,[0.54],3198,31,,[],22,Confused,,2,1,Female,English,Chrome,Mac,900,1440,4.93065,
104,condition1,straight,hair_straight_blond,hair,[0.61],5204,32,,[],22,Confused,,2,1,Female,English,Chrome,Mac,900,1440,4.93065,
104,condition1,curly,hair_curly_blonde,hair,[0.65],5068,33,,[],22,Confused,,2,1,Female,English,Chrome,Mac,900,1440,4.93065,
104,condition1,striped,frog_striped_green,frog,[0.2],2954,34,,[],22,Confused,,2,1,Female,English,Chrome,Mac,900,1440,4.93065,
104,condition1,colored,picture_colored_rectangular,picture,[0.79],5133,35,,[],22,Confused,,2,1,Female,English,Chrome,Mac,900,1440,4.93065,
104,condition1,green,frog_spotted_green,frog,[0.17],3884,36,,[],22,Confused,,2,1,Female,English,Chrome,Mac,900,1440,4.93065,
104,condition1,dirty,spoon_metal_dirty,spoon,[0.12],2428,37,,[],22,Confused,,2,1,Female,English,Chrome,Mac,900,1440,4.93065,
104,condition1,red,frog_spotted_red,frog,[0.12],2283,38,,[],22,Confused,,2,1,Female,English,Chrome,Mac,900,1440,4.93065,
104,condition1,triangular,earring_big_triangular,earring,[0.8],3504,39,,[],22,Confused,,2,1,Female,English,Chrome,Mac,900,1440,4.93065,
104,condition1,wooden,spoon_wooden_clean,spoon,[0.23],4273,40,,[],22,Confused,,2,1,Female,English,Chrome,Mac,900,1440,4.93065,
104,condition1,skinny,woman2_happy_skinny,woman,[0.12],3724,41,,[],22,Confused,,2,1,Female,English,Chrome,Mac,900,1440,4.93065,
104,condition1,small,bottle_glass_small,bottle,[0.23],19049,42,,[],22,Confused,,2,1,Female,English,Chrome,Mac,900,1440,4.93065,
104,condition1,rectangular,picture_bw_rectangular,picture,[0.13],3181,43,,[],22,Confused,,2,1,Female,English,Chrome,Mac,900,1440,4.93065,
104,condition1,spotted,frog_spotted_green,frog,[0.17],2323,44,,[],22,Confused,,2,1,Female,English,Chrome,Mac,900,1440,4.93065,
104,condition1,big,bottle_glass_big,bottle,[0.18],2007,45,,[],22,Confused,,2,1,Female,English,Chrome,Mac,900,1440,4.93065,
104,condition1,black and white,picture_bw_rectangular,picture,[0.73],3286,46,,[],22,Confused,,2,1,Female,English,Chrome,Mac,900,1440,4.93065,
104,condition1,fat,woman2_happy_fat,woman,[0.74],2395,47,,[],22,Confused,,2,1,Female,English,Chrome,Mac,900,1440,4.93065,
104,condition1,dry,shorts_dry_green,shorts,[0.52],1982,48,,[],22,Confused,,2,1,Female,English,Chrome,Mac,900,1440,4.93065,
113,condition1,,,Mary,Mary,0,1,bot_check,[],21,Yes,,2,1,Male,English ,Chrome,Linux,740,360,3.1163666666666665,
113,condition1,clean,spoon_metal_clean,spoon,[0.02],8917,3,,[],21,Yes,,2,1,Male,English ,Chrome,Linux,740,360,3.1163666666666665,
113,condition1,matte,nails_black_matte,nails,[0.78],6419,4,,[],21,Yes,,2,1,Male,English ,Chrome,Linux,740,360,3.1163666666666665,
113,condition1,high,table_metal_high,table,[0.99],7559,5,,[],21,Yes,,2,1,Male,English ,Chrome,Linux,740,360,3.1163666666666665,
113,condition1,black,nails_black_glossy,nails,[0.03],4830,6,,[],21,Yes,,2,1,Male,English ,Chrome,Linux,740,360,3.1163666666666665,
113,condition1,small,bottle_glass_small,bottle,[0.99],2467,7,,[],21,Yes,,2,1,Male,English ,Chrome,Linux,740,360,3.1163666666666665,
113,condition1,blond,hair_curly_blonde,hair,[0.05],2660,8,,[],21,Yes,,2,1,Male,English ,Chrome,Linux,740,360,3.1163666666666665,
113,condition1,long,pencil_long_black,pencil,[0.97],2375,9,,[],21,Yes,,2,1,Male,English ,Chrome,Linux,740,360,3.1163666666666665,
113,condition1,striped,frog_striped_green,frog,[0.18],4257,10,,[],21,Yes,,2,1,Male,English ,Chrome,Linux,740,360,3.1163666666666665,
113,condition1,clean-shaven,man_old_cleanshaven,man,[0.59],3246,11,,[],21,Yes,,2,1,Male,English ,Chrome,Linux,740,360,3.1163666666666665,
113,condition1,low,table_metal_low,table,[0.88],2564,12,,[],21,Yes,,2,1,Male,English ,Chrome,Linux,740,360,3.1163666666666665,
113,condition1,old,man_old_bearded,man,[0.95],5523,13,,[],21,Yes,,2,1,Male,English ,Chrome,Linux,740,360,3.1163666666666665,
113,condition1,colored,picture_colored_rectangular,picture,[0.03],4927,14,,[],21,Yes,,2,1,Male,English ,Chrome,Linux,740,360,3.1163666666666665,
113,condition1,red,frog_spotted_red,frog,[0.02],2147,15,,[],21,Yes,,2,1,Male,English ,Chrome,Linux,740,360,3.1163666666666665,
113,condition1,bearded,man_old_bearded,man,[0.04],3137,16,,[],21,Yes,,2,1,Male,English ,Chrome,Linux,740,360,3.1163666666666665,
113,condition1,spotted,frog_spotted_green,frog,[0.06],4389,17,,[],21,Yes,,2,1,Male,English ,Chrome,Linux,740,360,3.1163666666666665,
113,condition1,brown,hair_curly_brown,hair,[0.02],2190,18,,[],21,Yes,,2,1,Male,English ,Chrome,Linux,740,360,3.1163666666666665,
113,condition1,happy,woman_old_happy,woman,[0.75],3736,19,,[],21,Yes,,2,1,Male,English ,Chrome,Linux,740,360,3.1163666666666665,
113,condition1,skinny,woman2_happy_skinny,woman,[0.8],2095,20,,[],21,Yes,,2,1,Male,English ,Chrome,Linux,740,360,3.1163666666666665,
113,condition1,curly,hair_curly_blonde,hair,[0.5],4832,21,,[],21,Yes,,2,1,Male,English ,Chrome,Linux,740,360,3.1163666666666665,
113,condition1,rectangular,picture_bw_rectangular,picture,[0.03],2896,22,,[],21,Yes,,2,1,Male,English ,Chrome,Linux,740,360,3.1163666666666665,
113,condition1,dirty,spoon_metal_dirty,spoon,[0],6363,23,,[],21,Yes,,2,1,Male,English ,Chrome,Linux,740,360,3.1163666666666665,
113,condition1,straight,hair_straight_blond,hair,[0.05],3385,24,,[],21,Yes,,2,1,Male,English ,Chrome,Linux,740,360,3.1163666666666665,
113,condition1,plastic,bottle_plastic_big,bottle,[0.03],2683,25,,[],21,Yes,,2,1,Male,English ,Chrome,Linux,740,360,3.1163666666666665,
113,condition1,dry,shorts_dry_green,shorts,[0.19],5122,26,,[],21,Yes,,2,1,Male,English ,Chrome,Linux,740,360,3.1163666666666665,
113,condition1,triangular,earring_big_triangular,earring,[0.02],3835,27,,[],21,Yes,,2,1,Male,English ,Chrome,Linux,740,360,3.1163666666666665,
113,condition1,big,bottle_glass_big,bottle,[0.96],1972,28,,[],21,Yes,,2,1,Male,English ,Chrome,Linux,740,360,3.1163666666666665,
113,condition1,metal,spoon_metal_clean,spoon,[0.04],3647,29,,[],21,Yes,,2,1,Male,English ,Chrome,Linux,740,360,3.1163666666666665,
113,condition1,green,frog_spotted_green,frog,[0.04],2903,30,,[],21,Yes,,2,1,Male,English ,Chrome,Linux,740,360,3.1163666666666665,
113,condition1,round,earring_big_round,earring,[0.7],2471,31,,[],21,Yes,,2,1,Male,English ,Chrome,Linux,740,360,3.1163666666666665,
113,condition1,wet,shorts_wet_green,shorts,[0.08],2559,32,,[],21,Yes,,2,1,Male,English ,Chrome,Linux,740,360,3.1163666666666665,
113,condition1,glossy,nails_black_glossy,nails,[0.78],2669,33,,[],21,Yes,,2,1,Male,English ,Chrome,Linux,740,360,3.1163666666666665,
113,condition1,glass,bottle_glass_big,bottle,[0.04],2224,34,,[],21,Yes,,2,1,Male,English ,Chrome,Linux,740,360,3.1163666666666665,
113,condition1,black and white,picture_bw_rectangular,picture,[0.05],2364,35,,[],21,Yes,,2,1,Male,English ,Chrome,Linux,740,360,3.1163666666666665,
113,condition1,blue,pencil_long_blue,pencil,[0.04],2696,36,,[],21,Yes,,2,1,Male,English ,Chrome,Linux,740,360,3.1163666666666665,
113,condition1,wooden,spoon_wooden_clean,spoon,[0.02],2397,37,,[],21,Yes,,2,1,Male,English ,Chrome,Linux,740,360,3.1163666666666665,
113,condition1,open,box_open_cardboard,box,[0.01],4375,38,,[],21,Yes,,2,1,Male,English ,Chrome,Linux,740,360,3.1163666666666665,
113,condition1,closed,box_closed_cardboard,box,[0.02],2820,39,,[],21,Yes,,2,1,Male,English ,Chrome,Linux,740,360,3.1163666666666665,
113,condition1,mustache-touting,man2_mustached_glassed,man,[0.43],3985,40,,[],21,Yes,,2,1,Male,English ,Chrome,Linux,740,360,3.1163666666666665,
113,condition1,young,man_young_bearded,man,[0.82],4145,41,,[],21,Yes,,2,1,Male,English ,Chrome,Linux,740,360,3.1163666666666665,
113,condition1,sad,woman_old_sad,woman,[0.78],1496,42,,[],21,Yes,,2,1,Male,English ,Chrome,Linux,740,360,3.1163666666666665,
113,condition1,cardboard,box_closed_cardboard,box,[0.05],2229,43,,[],21,Yes,,2,1,Male,English ,Chrome,Linux,740,360,3.1163666666666665,
113,condition1,square,picture_bw_square,picture,[0.03],1942,44,,[],21,Yes,,2,1,Male,English ,Chrome,Linux,740,360,3.1163666666666665,
113,condition1,hat-wearing,man2_bearded_hatted,man,[0.02],2389,45,,[],21,Yes,,2,1,Male,English ,Chrome,Linux,740,360,3.1163666666666665,
113,condition1,fat,woman2_happy_fat,woman,[0.81],2702,46,,[],21,Yes,,2,1,Male,English ,Chrome,Linux,740,360,3.1163666666666665,
113,condition1,glasses-wearing,man2_bearded_glassed,man,[0.01],3358,47,,[],21,Yes,,2,1,Male,English ,Chrome,Linux,740,360,3.1163666666666665,
113,condition1,short,pencil_short_black,pencil,[0.8],1622,48,,[],21,Yes,,2,1,Male,English ,Chrome,Linux,740,360,3.1163666666666665,
88,condition1,,,Margaret,Margaret,0,1,bot_check,[],20,Yes,,2,2,Female,English,Chrome,Mac,900,1440,2.521733333333333,
88,condition1,blue,pencil_long_blue,pencil,[0.19],7155,3,,[],20,Yes,,2,2,Female,English,Chrome,Mac,900,1440,2.521733333333333,
88,condition1,small,bottle_glass_small,bottle,[0.7],4421,4,,[],20,Yes,,2,2,Female,English,Chrome,Mac,900,1440,2.521733333333333,
88,condition1,curly,hair_curly_blonde,hair,[0.83],4550,5,,[],20,Yes,,2,2,Female,English,Chrome,Mac,900,1440,2.521733333333333,
88,condition1,sad,woman_old_sad,woman,[0],4476,6,,[],20,Yes,,2,2,Female,English,Chrome,Mac,900,1440,2.521733333333333,
88,condition1,green,frog_spotted_green,frog,[0.68],5658,7,,[],20,Yes,,2,2,Female,English,Chrome,Mac,900,1440,2.521733333333333,
88,condition1,low,table_metal_low,table,[0.77],2894,8,,[],20,Yes,,2,2,Female,English,Chrome,Mac,900,1440,2.521733333333333,
88,condition1,open,box_open_cardboard,box,[0],2991,9,,[],20,Yes,,2,2,Female,English,Chrome,Mac,900,1440,2.521733333333333,
88,condition1,red,frog_spotted_red,frog,[1],2975,10,,[],20,Yes,,2,2,Female,English,Chrome,Mac,900,1440,2.521733333333333,
88,condition1,brown,hair_curly_brown,hair,[0.16],2628,11,,[],20,Yes,,2,2,Female,English,Chrome,Mac,900,1440,2.521733333333333,
88,condition1,wooden,spoon_wooden_clean,spoon,[0],2634,12,,[],20,Yes,,2,2,Female,English,Chrome,Mac,900,1440,2.521733333333333,
88,condition1,old,man_old_bearded,man,[0.66],3413,13,,[],20,Yes,,2,2,Female,English,Chrome,Mac,900,1440,2.521733333333333,
88,condition1,colored,picture_colored_rectangular,picture,[0],2997,14,,[],20,Yes,,2,2,Female,English,Chrome,Mac,900,1440,2.521733333333333,
88,condition1,glass,bottle_glass_big,bottle,[0],2734,15,,[],20,Yes,,2,2,Female,English,Chrome,Mac,900,1440,2.521733333333333,
88,condition1,blond,hair_curly_blonde,hair,[0.69],2088,16,,[],20,Yes,,2,2,Female,English,Chrome,Mac,900,1440,2.521733333333333,
88,condition1,dirty,spoon_metal_dirty,spoon,[0.4],3745,17,,[],20,Yes,,2,2,Female,English,Chrome,Mac,900,1440,2.521733333333333,
88,condition1,clean,spoon_metal_clean,spoon,[0.36],4292,18,,[],20,Yes,,2,2,Female,English,Chrome,Mac,900,1440,2.521733333333333,
88,condition1,square,picture_bw_square,picture,[0],2016,19,,[],20,Yes,,2,2,Female,English,Chrome,Mac,900,1440,2.521733333333333,
88,condition1,round,earring_big_round,earring,[0],2402,20,,[],20,Yes,,2,2,Female,English,Chrome,Mac,900,1440,2.521733333333333,
88,condition1,mustache-touting,man2_mustached_glassed,man,[0.46],3983,21,,[],20,Yes,,2,2,Female,English,Chrome,Mac,900,1440,2.521733333333333,
88,condition1,happy,woman_old_happy,woman,[0],1684,22,,[],20,Yes,,2,2,Female,English,Chrome,Mac,900,1440,2.521733333333333,
88,condition1,triangular,earring_big_triangular,earring,[0],2278,23,,[],20,Yes,,2,2,Female,English,Chrome,Mac,900,1440,2.521733333333333,
88,condition1,black,nails_black_glossy,nails,[0.66],3680,24,,[],20,Yes,,2,2,Female,English,Chrome,Mac,900,1440,2.521733333333333,
88,condition1,glossy,nails_black_glossy,nails,[0.69],7045,25,,[],20,Yes,,2,2,Female,English,Chrome,Mac,900,1440,2.521733333333333,
88,condition1,plastic,bottle_plastic_big,bottle,[0],1741,26,,[],20,Yes,,2,2,Female,English,Chrome,Mac,900,1440,2.521733333333333,
88,condition1,dry,shorts_dry_green,shorts,[0],2507,27,,[],20,Yes,,2,2,Female,English,Chrome,Mac,900,1440,2.521733333333333,
88,condition1,big,bottle_glass_big,bottle,[0.64],1742,28,,[],20,Yes,,2,2,Female,English,Chrome,Mac,900,1440,2.521733333333333,
88,condition1,straight,hair_straight_blond,hair,[0.73],1499,29,,[],20,Yes,,2,2,Female,English,Chrome,Mac,900,1440,2.521733333333333,
88,condition1,high,table_metal_high,table,[0.71],1596,30,,[],20,Yes,,2,2,Female,English,Chrome,Mac,900,1440,2.521733333333333,
88,condition1,fat,woman2_happy_fat,woman,[0.65],1523,31,,[],20,Yes,,2,2,Female,English,Chrome,Mac,900,1440,2.521733333333333,
88,condition1,closed,box_closed_cardboard,box,[0],1822,32,,[],20,Yes,,2,2,Female,English,Chrome,Mac,900,1440,2.521733333333333,
88,condition1,hat-wearing,man2_bearded_hatted,man,[0],2370,33,,[],20,Yes,,2,2,Female,English,Chrome,Mac,900,1440,2.521733333333333,
88,condition1,bearded,man_old_bearded,man,[0],1806,34,,[],20,Yes,,2,2,Female,English,Chrome,Mac,900,1440,2.521733333333333,
88,condition1,matte,nails_black_matte,nails,[0.76],1758,35,,[],20,Yes,,2,2,Female,English,Chrome,Mac,900,1440,2.521733333333333,
88,condition1,clean-shaven,man_old_cleanshaven,man,[0],1635,36,,[],20,Yes,,2,2,Female,English,Chrome,Mac,900,1440,2.521733333333333,
88,condition1,skinny,woman2_happy_skinny,woman,[0.69],1686,37,,[],20,Yes,,2,2,Female,English,Chrome,Mac,900,1440,2.521733333333333,
88,condition1,short,pencil_short_black,pencil,[0.1],5466,38,,[],20,Yes,,2,2,Female,English,Chrome,Mac,900,1440,2.521733333333333,
88,condition1,wet,shorts_wet_green,shorts,[0],2172,39,,[],20,Yes,,2,2,Female,English,Chrome,Mac,900,1440,2.521733333333333,
88,condition1,cardboard,box_closed_cardboard,box,[0],2053,40,,[],20,Yes,,2,2,Female,English,Chrome,Mac,900,1440,2.521733333333333,
88,condition1,black and white,picture_bw_rectangular,picture,[0],2337,41,,[],20,Yes,,2,2,Female,English,Chrome,Mac,900,1440,2.521733333333333,
88,condition1,rectangular,picture_bw_rectangular,picture,[0],1958,42,,[],20,Yes,,2,2,Female,English,Chrome,Mac,900,1440,2.521733333333333,
88,condition1,young,man_young_bearded,man,[1],1699,43,,[],20,Yes,,2,2,Female,English,Chrome,Mac,900,1440,2.521733333333333,
88,condition1,long,pencil_long_black,pencil,[0],2041,44,,[],20,Yes,,2,2,Female,English,Chrome,Mac,900,1440,2.521733333333333,
88,condition1,metal,spoon_metal_clean,spoon,[0],1789,45,,[],20,Yes,,2,2,Female,English,Chrome,Mac,900,1440,2.521733333333333,
88,condition1,striped,frog_striped_green,frog,[0],2016,46,,[],20,Yes,,2,2,Female,English,Chrome,Mac,900,1440,2.521733333333333,
88,condition1,glasses-wearing,man2_bearded_glassed,man,[0],1636,47,,[],20,Yes,,2,2,Female,English,Chrome,Mac,900,1440,2.521733333333333,
88,condition1,spotted,frog_spotted_green,frog,[0],1588,48,,[],20,Yes,,2,2,Female,English,Chrome,Mac,900,1440,2.521733333333333,
106,condition1,,,Jessica,Jessica,0,1,bot_check,[],23,Yes,,3,1,Male,,Chrome,Windows,1080,1920,6.256666666666667,
106,condition1,dirty,spoon_metal_dirty,spoon,[0],10973,3,,[],23,Yes,,3,1,Male,,Chrome,Windows,1080,1920,6.256666666666667,
106,condition1,mustache-touting,man2_mustached_glassed,man,[0],4031,4,,[],23,Yes,,3,1,Male,,Chrome,Windows,1080,1920,6.256666666666667,
106,condition1,young,man_young_bearded,man,[0.9],4994,5,,[],23,Yes,,3,1,Male,,Chrome,Windows,1080,1920,6.256666666666667,
106,condition1,cardboard,box_closed_cardboard,box,[0],4926,6,,[],23,Yes,,3,1,Male,,Chrome,Windows,1080,1920,6.256666666666667,
106,condition1,blond,hair_curly_blonde,hair,[0],1930,7,,[],23,Yes,,3,1,Male,,Chrome,Windows,1080,1920,6.256666666666667,
106,condition1,red,frog_spotted_red,frog,[0.09],4502,8,,[],23,Yes,,3,1,Male,,Chrome,Windows,1080,1920,6.256666666666667,
106,condition1,long,pencil_long_black,pencil,[0.44],2949,9,,[],23,Yes,,3,1,Male,,Chrome,Windows,1080,1920,6.256666666666667,
106,condition1,black,nails_black_glossy,nails,[0.15],4371,10,,[],23,Yes,,3,1,Male,,Chrome,Windows,1080,1920,6.256666666666667,
106,condition1,clean-shaven,man_old_cleanshaven,man,[0],2406,11,,[],23,Yes,,3,1,Male,,Chrome,Windows,1080,1920,6.256666666666667,
106,condition1,blue,pencil_long_blue,pencil,[0],2998,12,,[],23,Yes,,3,1,Male,,Chrome,Windows,1080,1920,6.256666666666667,
106,condition1,plastic,bottle_plastic_big,bottle,[0],2439,13,,[],23,Yes,,3,1,Male,,Chrome,Windows,1080,1920,6.256666666666667,
106,condition1,round,earring_big_round,earring,[0.23],4788,14,,[],23,Yes,,3,1,Male,,Chrome,Windows,1080,1920,6.256666666666667,
106,condition1,glass,bottle_glass_big,bottle,[0],2838,15,,[],23,Yes,,3,1,Male,,Chrome,Windows,1080,1920,6.256666666666667,
106,condition1,old,man_old_bearded,man,[0.65],3202,16,,[],23,Yes,,3,1,Male,,Chrome,Windows,1080,1920,6.256666666666667,
106,condition1,black and white,picture_bw_rectangular,picture,[0],2739,17,,[],23,Yes,,3,1,Male,,Chrome,Windows,1080,1920,6.256666666666667,
106,condition1,closed,box_closed_cardboard,box,[0],1685,18,,[],23,Yes,,3,1,Male,,Chrome,Windows,1080,1920,6.256666666666667,
106,condition1,skinny,woman2_happy_skinny,woman,[0.82],113605,19,,[],23,Yes,,3,1,Male,,Chrome,Windows,1080,1920,6.256666666666667,
106,condition1,low,table_metal_low,table,[0.2],2732,20,,[],23,Yes,,3,1,Male,,Chrome,Windows,1080,1920,6.256666666666667,
106,condition1,fat,woman2_happy_fat,woman,[0.92],2985,21,,[],23,Yes,,3,1,Male,,Chrome,Windows,1080,1920,6.256666666666667,
106,condition1,colored,picture_colored_rectangular,picture,[0],1744,22,,[],23,Yes,,3,1,Male,,Chrome,Windows,1080,1920,6.256666666666667,
106,condition1,high,table_metal_high,table,[0.41],3115,23,,[],23,Yes,,3,1,Male,,Chrome,Windows,1080,1920,6.256666666666667,
106,condition1,big,bottle_glass_big,bottle,[0.45],2781,24,,[],23,Yes,,3,1,Male,,Chrome,Windows,1080,1920,6.256666666666667,
106,condition1,hat-wearing,man2_bearded_hatted,man,[0],2264,25,,[],23,Yes,,3,1,Male,,Chrome,Windows,1080,1920,6.256666666666667,
106,condition1,sad,woman_old_sad,woman,[0.46],2063,26,,[],23,Yes,,3,1,Male,,Chrome,Windows,1080,1920,6.256666666666667,
106,condition1,triangular,earring_big_triangular,earring,[0],2231,27,,[],23,Yes,,3,1,Male,,Chrome,Windows,1080,1920,6.256666666666667,
106,condition1,brown,hair_curly_brown,hair,[0],2306,28,,[],23,Yes,,3,1,Male,,Chrome,Windows,1080,1920,6.256666666666667,
106,condition1,wet,shorts_wet_green,shorts,[0],3819,29,,[],23,Yes,,3,1,Male,,Chrome,Windows,1080,1920,6.256666666666667,
106,condition1,curly,hair_curly_blonde,hair,[0.13],7432,30,,[],23,Yes,,3,1,Male,,Chrome,Windows,1080,1920,6.256666666666667,
106,condition1,dry,shorts_dry_green,shorts,[0],2249,31,,[],23,Yes,,3,1,Male,,Chrome,Windows,1080,1920,6.256666666666667,
106,condition1,metal,spoon_metal_clean,spoon,[0],2027,32,,[],23,Yes,,3,1,Male,,Chrome,Windows,1080,1920,6.256666666666667,
106,condition1,bearded,man_old_bearded,man,[0],1445,33,,[],23,Yes,,3,1,Male,,Chrome,Windows,1080,1920,6.256666666666667,
106,condition1,wooden,spoon_wooden_clean,spoon,[0],1474,34,,[],23,Yes,,3,1,Male,,Chrome,Windows,1080,1920,6.256666666666667,
106,condition1,short,pencil_short_black,pencil,[0.4],2175,35,,[],23,Yes,,3,1,Male,,Chrome,Windows,1080,1920,6.256666666666667,
106,condition1,green,frog_spotted_green,frog,[0],1802,36,,[],23,Yes,,3,1,Male,,Chrome,Windows,1080,1920,6.256666666666667,
106,condition1,clean,spoon_metal_clean,spoon,[0],81131,37,,[],23,Yes,,3,1,Male,,Chrome,Windows,1080,1920,6.256666666666667,
106,condition1,open,box_open_cardboard,box,[0.04],18236,38,,[],23,Yes,,3,1,Male,,Chrome,Windows,1080,1920,6.256666666666667,
106,condition1,rectangular,picture_bw_rectangular,picture,[0],2348,39,,[],23,Yes,,3,1,Male,,Chrome,Windows,1080,1920,6.256666666666667,
106,condition1,happy,woman_old_happy,woman,[0.24],2048,40,,[],23,Yes,,3,1,Male,,Chrome,Windows,1080,1920,6.256666666666667,
106,condition1,straight,hair_straight_blond,hair,[0],1133,41,,[],23,Yes,,3,1,Male,,Chrome,Windows,1080,1920,6.256666666666667,
106,condition1,small,bottle_glass_small,bottle,[0.24],2695,42,,[],23,Yes,,3,1,Male,,Chrome,Windows,1080,1920,6.256666666666667,
106,condition1,square,picture_bw_square,picture,[0],3228,43,,[],23,Yes,,3,1,Male,,Chrome,Windows,1080,1920,6.256666666666667,
106,condition1,matte,nails_black_matte,nails,[0.14],2111,44,,[],23,Yes,,3,1,Male,,Chrome,Windows,1080,1920,6.256666666666667,
106,condition1,spotted,frog_spotted_green,frog,[0],2156,45,,[],23,Yes,,3,1,Male,,Chrome,Windows,1080,1920,6.256666666666667,
106,condition1,glossy,nails_black_glossy,nails,[0],1182,46,,[],23,Yes,,3,1,Male,,Chrome,Windows,1080,1920,6.256666666666667,
106,condition1,glasses-wearing,man2_bearded_glassed,man,[0],1295,47,,[],23,Yes,,3,1,Male,,Chrome,Windows,1080,1920,6.256666666666667,
106,condition1,striped,frog_striped_green,frog,[0],2774,48,,[],23,Yes,,3,1,Male,,Chrome,Windows,1080,1920,6.256666666666667,
56,condition1,,,Jennifer,Jennifer,0,1,bot_check,[],33,Yes,I think this was put together well. ,3,1,Male,English,Chrome,Windows,1080,1920,4.3739,
56,condition1,striped,frog_striped_green,frog,[0],17568,3,,[],33,Yes,I think this was put together well. ,3,1,Male,English,Chrome,Windows,1080,1920,4.3739,
56,condition1,triangular,earring_big_triangular,earring,[0.07],11200,4,,[],33,Yes,I think this was put together well. ,3,1,Male,English,Chrome,Windows,1080,1920,4.3739,
56,condition1,wooden,spoon_wooden_clean,spoon,[0.04],3360,5,,[],33,Yes,I think this was put together well. ,3,1,Male,English,Chrome,Windows,1080,1920,4.3739,
56,condition1,green,frog_spotted_green,frog,[0.07],3792,6,,[],33,Yes,I think this was put together well. ,3,1,Male,English,Chrome,Windows,1080,1920,4.3739,
56,condition1,spotted,frog_spotted_green,frog,[0.03],3848,7,,[],33,Yes,I think this was put together well. ,3,1,Male,English,Chrome,Windows,1080,1920,4.3739,
56,condition1,rectangular,picture_bw_rectangular,picture,[0.05],2952,8,,[],33,Yes,I think this was put together well. ,3,1,Male,English,Chrome,Windows,1080,1920,4.3739,
56,condition1,hat-wearing,man2_bearded_hatted,man,[0.04],6816,9,,[],33,Yes,I think this was put together well. ,3,1,Male,English,Chrome,Windows,1080,1920,4.3739,
56,condition1,glossy,nails_black_glossy,nails,[0.06],4016,10,,[],33,Yes,I think this was put together well. ,3,1,Male,English,Chrome,Windows,1080,1920,4.3739,
56,condition1,cardboard,box_closed_cardboard,box,[0.05],4928,11,,[],33,Yes,I think this was put together well. ,3,1,Male,English,Chrome,Windows,1080,1920,4.3739,
56,condition1,plastic,bottle_plastic_big,bottle,[0.05],3280,12,,[],33,Yes,I think this was put together well. ,3,1,Male,English,Chrome,Windows,1080,1920,4.3739,
56,condition1,long,pencil_long_black,pencil,[0.22],5912,13,,[],33,Yes,I think this was put together well. ,3,1,Male,English,Chrome,Windows,1080,1920,4.3739,
56,condition1,sad,woman_old_sad,woman,[0.47],9815,14,,[],33,Yes,I think this was put together well. ,3,1,Male,English,Chrome,Windows,1080,1920,4.3739,
56,condition1,black,nails_black_glossy,nails,[0.04],4736,15,,[],33,Yes,I think this was put together well. ,3,1,Male,English,Chrome,Windows,1080,1920,4.3739,
56,condition1,red,frog_spotted_red,frog,[0.04],3473,16,,[],33,Yes,I think this was put together well. ,3,1,Male,English,Chrome,Windows,1080,1920,4.3739,
56,condition1,big,bottle_glass_big,bottle,[0.13],4023,17,,[],33,Yes,I think this was put together well. ,3,1,Male,English,Chrome,Windows,1080,1920,4.3739,
56,condition1,brown,hair_curly_brown,hair,[0.03],2856,18,,[],33,Yes,I think this was put together well. ,3,1,Male,English,Chrome,Windows,1080,1920,4.3739,
56,condition1,metal,spoon_metal_clean,spoon,[0.03],3199,19,,[],33,Yes,I think this was put together well. ,3,1,Male,English,Chrome,Windows,1080,1920,4.3739,
56,condition1,closed,box_closed_cardboard,box,[0.06],3160,20,,[],33,Yes,I think this was put together well. ,3,1,Male,English,Chrome,Windows,1080,1920,4.3739,
56,condition1,glass,bottle_glass_big,bottle,[0.05],6784,21,,[],33,Yes,I think this was put together well. ,3,1,Male,English,Chrome,Windows,1080,1920,4.3739,
56,condition1,colored,picture_colored_rectangular,picture,[0.05],27304,22,,[],33,Yes,I think this was put together well. ,3,1,Male,English,Chrome,Windows,1080,1920,4.3739,
56,condition1,open,box_open_cardboard,box,[0.03],2080,23,,[],33,Yes,I think this was put together well. ,3,1,Male,English,Chrome,Windows,1080,1920,4.3739,
56,condition1,matte,nails_black_matte,nails,[0.04],2639,24,,[],33,Yes,I think this was put together well. ,3,1,Male,English,Chrome,Windows,1080,1920,4.3739,
56,condition1,fat,woman2_happy_fat,woman,[0.25],2969,25,,[],33,Yes,I think this was put together well. ,3,1,Male,English,Chrome,Windows,1080,1920,4.3739,
56,condition1,clean-shaven,man_old_cleanshaven,man,[0.25],3320,26,,[],33,Yes,I think this was put together well. ,3,1,Male,English,Chrome,Windows,1080,1920,4.3739,
56,condition1,skinny,woman2_happy_skinny,woman,[0.46],3408,27,,[],33,Yes,I think this was put together well. ,3,1,Male,English,Chrome,Windows,1080,1920,4.3739,
56,condition1,clean,spoon_metal_clean,spoon,[0.2],3392,28,,[],33,Yes,I think this was put together well. ,3,1,Male,English,Chrome,Windows,1080,1920,4.3739,
56,condition1,young,man_young_bearded,man,[0.42],2584,29,,[],33,Yes,I think this was put together well. ,3,1,Male,English,Chrome,Windows,1080,1920,4.3739,
56,condition1,dry,shorts_dry_green,shorts,[0.14],2792,30,,[],33,Yes,I think this was put together well. ,3,1,Male,English,Chrome,Windows,1080,1920,4.3739,
56,condition1,small,bottle_glass_small,bottle,[0.25],2351,31,,[],33,Yes,I think this was put together well. ,3,1,Male,English,Chrome,Windows,1080,1920,4.3739,
56,condition1,straight,hair_straight_blond,hair,[0.05],2368,32,,[],33,Yes,I think this was put together well. ,3,1,Male,English,Chrome,Windows,1080,1920,4.3739,
56,condition1,low,table_metal_low,table,[0.16],5423,33,,[],33,Yes,I think this was put together well. ,3,1,Male,English,Chrome,Windows,1080,1920,4.3739,
56,condition1,square,picture_bw_square,picture,[0.06],2135,34,,[],33,Yes,I think this was put together well. ,3,1,Male,English,Chrome,Windows,1080,1920,4.3739,
56,condition1,mustache-touting,man2_mustached_glassed,man,[0.08],3712,35,,[],33,Yes,I think this was put together well. ,3,1,Male,English,Chrome,Windows,1080,1920,4.3739,
56,condition1,dirty,spoon_metal_dirty,spoon,[0.07],2023,36,,[],33,Yes,I think this was put together well. ,3,1,Male,English,Chrome,Windows,1080,1920,4.3739,
56,condition1,blue,pencil_long_blue,pencil,[0.02],2112,37,,[],33,Yes,I think this was put together well. ,3,1,Male,English,Chrome,Windows,1080,1920,4.3739,
56,condition1,black and white,picture_bw_rectangular,picture,[0.04],2656,38,,[],33,Yes,I think this was put together well. ,3,1,Male,English,Chrome,Windows,1080,1920,4.3739,
56,condition1,glasses-wearing,man2_bearded_glassed,man,[0.05],3736,39,,[],33,Yes,I think this was put together well. ,3,1,Male,English,Chrome,Windows,1080,1920,4.3739,
56,condition1,bearded,man_old_bearded,man,[0.04],6000,40,,[],33,Yes,I think this was put together well. ,3,1,Male,English,Chrome,Windows,1080,1920,4.3739,
56,condition1,short,pencil_short_black,pencil,[0.19],2943,41,,[],33,Yes,I think this was put together well. ,3,1,Male,English,Chrome,Windows,1080,1920,4.3739,
56,condition1,high,table_metal_high,table,[0.24],1879,42,,[],33,Yes,I think this was put together well. ,3,1,Male,English,Chrome,Windows,1080,1920,4.3739,
56,condition1,blond,hair_curly_blonde,hair,[0.2],1488,43,,[],33,Yes,I think this was put together well. ,3,1,Male,English,Chrome,Windows,1080,1920,4.3739,
56,condition1,happy,woman_old_happy,woman,[0.37],3312,44,,[],33,Yes,I think this was put together well. ,3,1,Male,English,Chrome,Windows,1080,1920,4.3739,
56,condition1,curly,hair_curly_blonde,hair,[0.05],1840,45,,[],33,Yes,I think this was put together well. ,3,1,Male,English,Chrome,Windows,1080,1920,4.3739,
56,condition1,old,man_old_bearded,man,[0.34],2304,46,,[],33,Yes,I think this was put together well. ,3,1,Male,English,Chrome,Windows,1080,1920,4.3739,
56,condition1,round,earring_big_round,earring,[0.03],3687,47,,[],33,Yes,I think this was put together well. ,3,1,Male,English,Chrome,Windows,1080,1920,4.3739,
56,condition1,wet,shorts_wet_green,shorts,[0.32],2024,48,,[],33,Yes,I think this was put together well. ,3,1,Male,English,Chrome,Windows,1080,1920,4.3739,
97,condition1,,,Margaret,Margaret,0,1,bot_check,[],20,Yes,,2,1,Male,English,Chrome,Windows,1080,1920,1.3157,
97,condition1,high,table_metal_high,table,[0.63],7439,3,,[],20,Yes,,2,1,Male,English,Chrome,Windows,1080,1920,1.3157,
97,condition1,big,bottle_glass_big,bottle,[0.57],3397,4,,[],20,Yes,,2,1,Male,English,Chrome,Windows,1080,1920,1.3157,
97,condition1,clean,spoon_metal_clean,spoon,[0.02],2351,5,,[],20,Yes,,2,1,Male,English,Chrome,Windows,1080,1920,1.3157,
97,condition1,glasses-wearing,man2_bearded_glassed,man,[0],4614,6,,[],20,Yes,,2,1,Male,English,Chrome,Windows,1080,1920,1.3157,
97,condition1,wet,shorts_wet_green,shorts,[0.02],2688,7,,[],20,Yes,,2,1,Male,English,Chrome,Windows,1080,1920,1.3157,
97,condition1,dry,shorts_dry_green,shorts,[0],7288,8,,[],20,Yes,,2,1,Male,English,Chrome,Windows,1080,1920,1.3157,
97,condition1,straight,hair_straight_blond,hair,[0.7],4338,9,,[],20,Yes,,2,1,Male,English,Chrome,Windows,1080,1920,1.3157,
97,condition1,mustache-touting,man2_mustached_glassed,man,[0.04],3209,10,,[],20,Yes,,2,1,Male,English,Chrome,Windows,1080,1920,1.3157,
97,condition1,low,table_metal_low,table,[0.03],4638,11,,[],20,Yes,,2,1,Male,English,Chrome,Windows,1080,1920,1.3157,
97,condition1,striped,frog_striped_green,frog,[0.02],2234,12,,[],20,Yes,,2,1,Male,English,Chrome,Windows,1080,1920,1.3157,
97,condition1,rectangular,picture_bw_rectangular,picture,[0.02],2240,13,,[],20,Yes,,2,1,Male,English,Chrome,Windows,1080,1920,1.3157,
97,condition1,dirty,spoon_metal_dirty,spoon,[0.04],2124,14,,[],20,Yes,,2,1,Male,English,Chrome,Windows,1080,1920,1.3157,
97,condition1,short,pencil_short_black,pencil,[0.05],2300,15,,[],20,Yes,,2,1,Male,English,Chrome,Windows,1080,1920,1.3157,
97,condition1,long,pencil_long_black,pencil,[0.03],1714,16,,[],20,Yes,,2,1,Male,English,Chrome,Windows,1080,1920,1.3157,
97,condition1,colored,picture_colored_rectangular,picture,[0.05],1362,17,,[],20,Yes,,2,1,Male,English,Chrome,Windows,1080,1920,1.3157,
97,condition1,black,nails_black_glossy,nails,[0.05],3751,18,,[],20,Yes,,2,1,Male,English,Chrome,Windows,1080,1920,1.3157,
97,condition1,glossy,nails_black_glossy,nails,[0.03],1380,19,,[],20,Yes,,2,1,Male,English,Chrome,Windows,1080,1920,1.3157,
97,condition1,bearded,man_old_bearded,man,[0.01],808,20,,[],20,Yes,,2,1,Male,English,Chrome,Windows,1080,1920,1.3157,
97,condition1,fat,woman2_happy_fat,woman,[0.03],536,21,,[],20,Yes,,2,1,Male,English,Chrome,Windows,1080,1920,1.3157,
97,condition1,metal,spoon_metal_clean,spoon,[0.03],472,22,,[],20,Yes,,2,1,Male,English,Chrome,Windows,1080,1920,1.3157,
97,condition1,skinny,woman2_happy_skinny,woman,[0.03],440,23,,[],20,Yes,,2,1,Male,English,Chrome,Windows,1080,1920,1.3157,
97,condition1,curly,hair_curly_blonde,hair,[0.03],472,24,,[],20,Yes,,2,1,Male,English,Chrome,Windows,1080,1920,1.3157,
97,condition1,plastic,bottle_plastic_big,bottle,[0.07],400,25,,[],20,Yes,,2,1,Male,English,Chrome,Windows,1080,1920,1.3157,
97,condition1,square,picture_bw_square,picture,[0.11],472,26,,[],20,Yes,,2,1,Male,English,Chrome,Windows,1080,1920,1.3157,
97,condition1,small,bottle_glass_small,bottle,[0.15],456,27,,[],20,Yes,,2,1,Male,English,Chrome,Windows,1080,1920,1.3157,
97,condition1,red,frog_spotted_red,frog,[0.08],440,28,,[],20,Yes,,2,1,Male,English,Chrome,Windows,1080,1920,1.3157,
97,condition1,brown,hair_curly_brown,hair,[0.06],455,29,,[],20,Yes,,2,1,Male,English,Chrome,Windows,1080,1920,1.3157,
97,condition1,old,man_old_bearded,man,[0.04],527,30,,[],20,Yes,,2,1,Male,English,Chrome,Windows,1080,1920,1.3157,
97,condition1,young,man_young_bearded,man,[0.07],408,31,,[],20,Yes,,2,1,Male,English,Chrome,Windows,1080,1920,1.3157,
97,condition1,clean-shaven,man_old_cleanshaven,man,[0.06],440,32,,[],20,Yes,,2,1,Male,English,Chrome,Windows,1080,1920,1.3157,
97,condition1,glass,bottle_glass_big,bottle,[0.06],336,33,,[],20,Yes,,2,1,Male,English,Chrome,Windows,1080,1920,1.3157,
97,condition1,open,box_open_cardboard,box,[0.06],320,34,,[],20,Yes,,2,1,Male,English,Chrome,Windows,1080,1920,1.3157,
97,condition1,sad,woman_old_sad,woman,[0.06],304,35,,[],20,Yes,,2,1,Male,English,Chrome,Windows,1080,1920,1.3157,
97,condition1,wooden,spoon_wooden_clean,spoon,[0.06],296,36,,[],20,Yes,,2,1,Male,English,Chrome,Windows,1080,1920,1.3157,
97,condition1,closed,box_closed_cardboard,box,[0.06],280,37,,[],20,Yes,,2,1,Male,English,Chrome,Windows,1080,1920,1.3157,
97,condition1,hat-wearing,man2_bearded_hatted,man,[0.06],304,38,,[],20,Yes,,2,1,Male,English,Chrome,Windows,1080,1920,1.3157,
97,condition1,spotted,frog_spotted_green,frog,[0.06],280,39,,[],20,Yes,,2,1,Male,English,Chrome,Windows,1080,1920,1.3157,
97,condition1,blond,hair_curly_blonde,hair,[0.06],256,40,,[],20,Yes,,2,1,Male,English,Chrome,Windows,1080,1920,1.3157,
97,condition1,happy,woman_old_happy,woman,[0.06],280,41,,[],20,Yes,,2,1,Male,English,Chrome,Windows,1080,1920,1.3157,
97,condition1,green,frog_spotted_green,frog,[0.06],288,42,,[],20,Yes,,2,1,Male,English,Chrome,Windows,1080,1920,1.3157,
97,condition1,black and white,picture_bw_rectangular,picture,[0.06],288,43,,[],20,Yes,,2,1,Male,English,Chrome,Windows,1080,1920,1.3157,
97,condition1,matte,nails_black_matte,nails,[0.06],272,44,,[],20,Yes,,2,1,Male,English,Chrome,Windows,1080,1920,1.3157,
97,condition1,cardboard,box_closed_cardboard,box,[0.06],272,45,,[],20,Yes,,2,1,Male,English,Chrome,Windows,1080,1920,1.3157,
97,condition1,round,earring_big_round,earring,[0.06],248,46,,[],20,Yes,,2,1,Male,English,Chrome,Windows,1080,1920,1.3157,
97,condition1,triangular,earring_big_triangular,earring,[0.06],256,47,,[],20,Yes,,2,1,Male,English,Chrome,Windows,1080,1920,1.3157,
97,condition1,blue,pencil_long_blue,pencil,[0.5],208,48,,[],20,Yes,,2,1,Male,English,Chrome,Windows,1080,1920,1.3157,
86,condition1,,,Linda,Linda,0,1,bot_check,[],31,Yes,,4,1,Male,English,Chrome,Windows,1080,1920,2.612416666666667,
86,condition1,sad,woman_old_sad,woman,[0.08],8168,3,,[],31,Yes,,4,1,Male,English,Chrome,Windows,1080,1920,2.612416666666667,
86,condition1,spotted,frog_spotted_green,frog,[0.11],3647,4,,[],31,Yes,,4,1,Male,English,Chrome,Windows,1080,1920,2.612416666666667,
86,condition1,young,man_young_bearded,man,[0.35],2376,5,,[],31,Yes,,4,1,Male,English,Chrome,Windows,1080,1920,2.612416666666667,
86,condition1,brown,hair_curly_brown,hair,[0.26],2832,6,,[],31,Yes,,4,1,Male,English,Chrome,Windows,1080,1920,2.612416666666667,
86,condition1,long,pencil_long_black,pencil,[1],2544,7,,[],31,Yes,,4,1,Male,English,Chrome,Windows,1080,1920,2.612416666666667,
86,condition1,happy,woman_old_happy,woman,[0.06],2768,8,,[],31,Yes,,4,1,Male,English,Chrome,Windows,1080,1920,2.612416666666667,
86,condition1,clean-shaven,man_old_cleanshaven,man,[0.05],2647,9,,[],31,Yes,,4,1,Male,English,Chrome,Windows,1080,1920,2.612416666666667,
86,condition1,hat-wearing,man2_bearded_hatted,man,[0],5095,10,,[],31,Yes,,4,1,Male,English,Chrome,Windows,1080,1920,2.612416666666667,
86,condition1,rectangular,picture_bw_rectangular,picture,[0],2792,11,,[],31,Yes,,4,1,Male,English,Chrome,Windows,1080,1920,2.612416666666667,
86,condition1,wet,shorts_wet_green,shorts,[0],1951,12,,[],31,Yes,,4,1,Male,English,Chrome,Windows,1080,1920,2.612416666666667,
86,condition1,fat,woman2_happy_fat,woman,[0.6],3313,13,,[],31,Yes,,4,1,Male,English,Chrome,Windows,1080,1920,2.612416666666667,
86,condition1,square,picture_bw_square,picture,[0],2616,14,,[],31,Yes,,4,1,Male,English,Chrome,Windows,1080,1920,2.612416666666667,
86,condition1,colored,picture_colored_rectangular,picture,[0],2711,15,,[],31,Yes,,4,1,Male,English,Chrome,Windows,1080,1920,2.612416666666667,
86,condition1,straight,hair_straight_blond,hair,[0.03],2696,16,,[],31,Yes,,4,1,Male,English,Chrome,Windows,1080,1920,2.612416666666667,
86,condition1,closed,box_closed_cardboard,box,[0.06],4031,17,,[],31,Yes,,4,1,Male,English,Chrome,Windows,1080,1920,2.612416666666667,
86,condition1,glasses-wearing,man2_bearded_glassed,man,[0],1890,18,,[],31,Yes,,4,1,Male,English,Chrome,Windows,1080,1920,2.612416666666667,
86,condition1,matte,nails_black_matte,nails,[0],2663,19,,[],31,Yes,,4,1,Male,English,Chrome,Windows,1080,1920,2.612416666666667,
86,condition1,triangular,earring_big_triangular,earring,[0],1974,20,,[],31,Yes,,4,1,Male,English,Chrome,Windows,1080,1920,2.612416666666667,
86,condition1,skinny,woman2_happy_skinny,woman,[0.75],2728,21,,[],31,Yes,,4,1,Male,English,Chrome,Windows,1080,1920,2.612416666666667,
86,condition1,blue,pencil_long_blue,pencil,[0],2248,22,,[],31,Yes,,4,1,Male,English,Chrome,Windows,1080,1920,2.612416666666667,
86,condition1,plastic,bottle_plastic_big,bottle,[0],1592,23,,[],31,Yes,,4,1,Male,English,Chrome,Windows,1080,1920,2.612416666666667,
86,condition1,small,bottle_glass_small,bottle,[0],4312,24,,[],31,Yes,,4,1,Male,English,Chrome,Windows,1080,1920,2.612416666666667,
86,condition1,cardboard,box_closed_cardboard,box,[0.09],2984,25,,[],31,Yes,,4,1,Male,English,Chrome,Windows,1080,1920,2.612416666666667,
86,condition1,blond,hair_curly_blonde,hair,[0],2168,26,,[],31,Yes,,4,1,Male,English,Chrome,Windows,1080,1920,2.612416666666667,
86,condition1,glossy,nails_black_glossy,nails,[0],1935,27,,[],31,Yes,,4,1,Male,English,Chrome,Windows,1080,1920,2.612416666666667,
86,condition1,green,frog_spotted_green,frog,[0],2169,28,,[],31,Yes,,4,1,Male,English,Chrome,Windows,1080,1920,2.612416666666667,
86,condition1,old,man_old_bearded,man,[0.61],2864,29,,[],31,Yes,,4,1,Male,English,Chrome,Windows,1080,1920,2.612416666666667,
86,condition1,big,bottle_glass_big,bottle,[0.59],2904,30,,[],31,Yes,,4,1,Male,English,Chrome,Windows,1080,1920,2.612416666666667,
86,condition1,metal,spoon_metal_clean,spoon,[0],2113,31,,[],31,Yes,,4,1,Male,English,Chrome,Windows,1080,1920,2.612416666666667,
86,condition1,striped,frog_striped_green,frog,[0],2584,32,,[],31,Yes,,4,1,Male,English,Chrome,Windows,1080,1920,2.612416666666667,
86,condition1,mustache-touting,man2_mustached_glassed,man,[0],2263,33,,[],31,Yes,,4,1,Male,English,Chrome,Windows,1080,1920,2.612416666666667,
86,condition1,glass,bottle_glass_big,bottle,[0],2120,34,,[],31,Yes,,4,1,Male,English,Chrome,Windows,1080,1920,2.612416666666667,
86,condition1,dirty,spoon_metal_dirty,spoon,[0.36],4032,35,,[],31,Yes,,4,1,Male,English,Chrome,Windows,1080,1920,2.612416666666667,
86,condition1,black,nails_black_glossy,nails,[0],2200,36,,[],31,Yes,,4,1,Male,English,Chrome,Windows,1080,1920,2.612416666666667,
86,condition1,high,table_metal_high,table,[0.89],4656,37,,[],31,Yes,,4,1,Male,English,Chrome,Windows,1080,1920,2.612416666666667,
86,condition1,short,pencil_short_black,pencil,[0.91],1808,38,,[],31,Yes,,4,1,Male,English,Chrome,Windows,1080,1920,2.612416666666667,
86,condition1,low,table_metal_low,table,[0.84],2016,39,,[],31,Yes,,4,1,Male,English,Chrome,Windows,1080,1920,2.612416666666667,
86,condition1,curly,hair_curly_blonde,hair,[0],1904,40,,[],31,Yes,,4,1,Male,English,Chrome,Windows,1080,1920,2.612416666666667,
86,condition1,dry,shorts_dry_green,shorts,[0.03],3400,41,,[],31,Yes,,4,1,Male,English,Chrome,Windows,1080,1920,2.612416666666667,
86,condition1,round,earring_big_round,earring,[0],1560,42,,[],31,Yes,,4,1,Male,English,Chrome,Windows,1080,1920,2.612416666666667,
86,condition1,clean,spoon_metal_clean,spoon,[0.29],4193,43,,[],31,Yes,,4,1,Male,English,Chrome,Windows,1080,1920,2.612416666666667,
86,condition1,open,box_open_cardboard,box,[0],1703,44,,[],31,Yes,,4,1,Male,English,Chrome,Windows,1080,1920,2.612416666666667,
86,condition1,bearded,man_old_bearded,man,[0],1864,45,,[],31,Yes,,4,1,Male,English,Chrome,Windows,1080,1920,2.612416666666667,
86,condition1,black and white,picture_bw_rectangular,picture,[0],1848,46,,[],31,Yes,,4,1,Male,English,Chrome,Windows,1080,1920,2.612416666666667,
86,condition1,red,frog_spotted_red,frog,[0],1568,47,,[],31,Yes,,4,1,Male,English,Chrome,Windows,1080,1920,2.612416666666667,
86,condition1,wooden,spoon_wooden_clean,spoon,[0.01],7864,48,,[],31,Yes,,4,1,Male,English,Chrome,Windows,1080,1920,2.612416666666667,
111,condition1,,,Susan,Susan,0,1,bot_check,[],29,Yes,,2,2,Female,English,Chrome,Linux,915,412,2.62085,
111,condition1,bearded,man_old_bearded,man,[0],5324,3,,[],29,Yes,,2,2,Female,English,Chrome,Linux,915,412,2.62085,
111,condition1,clean-shaven,man_old_cleanshaven,man,[0.01],4052,4,,[],29,Yes,,2,2,Female,English,Chrome,Linux,915,412,2.62085,
111,condition1,blue,pencil_long_blue,pencil,[0.03],2539,5,,[],29,Yes,,2,2,Female,English,Chrome,Linux,915,412,2.62085,
111,condition1,hat-wearing,man2_bearded_hatted,man,[0.07],3654,6,,[],29,Yes,,2,2,Female,English,Chrome,Linux,915,412,2.62085,
111,condition1,rectangular,picture_bw_rectangular,picture,[0.03],2555,7,,[],29,Yes,,2,2,Female,English,Chrome,Linux,915,412,2.62085,
111,condition1,red,frog_spotted_red,frog,[0.04],4535,8,,[],29,Yes,,2,2,Female,English,Chrome,Linux,915,412,2.62085,
111,condition1,mustache-touting,man2_mustached_glassed,man,[0.02],2960,9,,[],29,Yes,,2,2,Female,English,Chrome,Linux,915,412,2.62085,
111,condition1,young,man_young_bearded,man,[0.59],4174,10,,[],29,Yes,,2,2,Female,English,Chrome,Linux,915,412,2.62085,
111,condition1,sad,woman_old_sad,woman,[0.95],3206,11,,[],29,Yes,,2,2,Female,English,Chrome,Linux,915,412,2.62085,
111,condition1,old,man_old_bearded,man,[0.57],2736,12,,[],29,Yes,,2,2,Female,English,Chrome,Linux,915,412,2.62085,
111,condition1,brown,hair_curly_brown,hair,[0.3],2811,13,,[],29,Yes,,2,2,Female,English,Chrome,Linux,915,412,2.62085,
111,condition1,plastic,bottle_plastic_big,bottle,[0],2239,14,,[],29,Yes,,2,2,Female,English,Chrome,Linux,915,412,2.62085,
111,condition1,colored,picture_colored_rectangular,picture,[0.02],2404,15,,[],29,Yes,,2,2,Female,English,Chrome,Linux,915,412,2.62085,
111,condition1,curly,hair_curly_blonde,hair,[0.35],2334,16,,[],29,Yes,,2,2,Female,English,Chrome,Linux,915,412,2.62085,
111,condition1,small,bottle_glass_small,bottle,[0.5],3267,17,,[],29,Yes,,2,2,Female,English,Chrome,Linux,915,412,2.62085,
111,condition1,matte,nails_black_matte,nails,[0.02],2661,18,,[],29,Yes,,2,2,Female,English,Chrome,Linux,915,412,2.62085,
111,condition1,striped,frog_striped_green,frog,[0.02],2352,19,,[],29,Yes,,2,2,Female,English,Chrome,Linux,915,412,2.62085,
111,condition1,long,pencil_long_black,pencil,[0.46],3113,20,,[],29,Yes,,2,2,Female,English,Chrome,Linux,915,412,2.62085,
111,condition1,short,pencil_short_black,pencil,[0.49],2315,21,,[],29,Yes,,2,2,Female,English,Chrome,Linux,915,412,2.62085,
111,condition1,low,table_metal_low,table,[0.53],2453,22,,[],29,Yes,,2,2,Female,English,Chrome,Linux,915,412,2.62085,
111,condition1,open,box_open_cardboard,box,[0.02],5046,23,,[],29,Yes,,2,2,Female,English,Chrome,Linux,915,412,2.62085,
111,condition1,spotted,frog_spotted_green,frog,[0.06],2497,24,,[],29,Yes,,2,2,Female,English,Chrome,Linux,915,412,2.62085,
111,condition1,square,picture_bw_square,picture,[0.01],1994,25,,[],29,Yes,,2,2,Female,English,Chrome,Linux,915,412,2.62085,
111,condition1,glass,bottle_glass_big,bottle,[0],2385,26,,[],29,Yes,,2,2,Female,English,Chrome,Linux,915,412,2.62085,
111,condition1,round,earring_big_round,earring,[0.02],2261,27,,[],29,Yes,,2,2,Female,English,Chrome,Linux,915,412,2.62085,
111,condition1,blond,hair_curly_blonde,hair,[0.32],2875,28,,[],29,Yes,,2,2,Female,English,Chrome,Linux,915,412,2.62085,
111,condition1,happy,woman_old_happy,woman,[0.91],2956,29,,[],29,Yes,,2,2,Female,English,Chrome,Linux,915,412,2.62085,
111,condition1,straight,hair_straight_blond,hair,[0.21],2587,30,,[],29,Yes,,2,2,Female,English,Chrome,Linux,915,412,2.62085,
111,condition1,cardboard,box_closed_cardboard,box,[0.02],2228,31,,[],29,Yes,,2,2,Female,English,Chrome,Linux,915,412,2.62085,
111,condition1,closed,box_closed_cardboard,box,[0.03],3023,32,,[],29,Yes,,2,2,Female,English,Chrome,Linux,915,412,2.62085,
111,condition1,glasses-wearing,man2_bearded_glassed,man,[0],2062,33,,[],29,Yes,,2,2,Female,English,Chrome,Linux,915,412,2.62085,
111,condition1,black,nails_black_glossy,nails,[0.01],3458,34,,[],29,Yes,,2,2,Female,English,Chrome,Linux,915,412,2.62085,
111,condition1,dry,shorts_dry_green,shorts,[0.03],3083,35,,[],29,Yes,,2,2,Female,English,Chrome,Linux,915,412,2.62085,
111,condition1,dirty,spoon_metal_dirty,spoon,[0.02],2267,36,,[],29,Yes,,2,2,Female,English,Chrome,Linux,915,412,2.62085,
111,condition1,glossy,nails_black_glossy,nails,[0.02],2006,37,,[],29,Yes,,2,2,Female,English,Chrome,Linux,915,412,2.62085,
111,condition1,high,table_metal_high,table,[0.57],3202,38,,[],29,Yes,,2,2,Female,English,Chrome,Linux,915,412,2.62085,
111,condition1,green,frog_spotted_green,frog,[0.01],3119,39,,[],29,Yes,,2,2,Female,English,Chrome,Linux,915,412,2.62085,
111,condition1,big,bottle_glass_big,bottle,[0.55],2841,40,,[],29,Yes,,2,2,Female,English,Chrome,Linux,915,412,2.62085,
111,condition1,black and white,picture_bw_rectangular,picture,[0.02],2404,41,,[],29,Yes,,2,2,Female,English,Chrome,Linux,915,412,2.62085,
111,condition1,triangular,earring_big_triangular,earring,[0.04],3844,42,,[],29,Yes,,2,2,Female,English,Chrome,Linux,915,412,2.62085,
111,condition1,clean,spoon_metal_clean,spoon,[0.04],2041,43,,[],29,Yes,,2,2,Female,English,Chrome,Linux,915,412,2.62085,
111,condition1,wet,shorts_wet_green,shorts,[0.04],2054,44,,[],29,Yes,,2,2,Female,English,Chrome,Linux,915,412,2.62085,
111,condition1,metal,spoon_metal_clean,spoon,[0.03],2029,45,,[],29,Yes,,2,2,Female,English,Chrome,Linux,915,412,2.62085,
111,condition1,skinny,woman2_happy_skinny,woman,[0.58],2483,46,,[],29,Yes,,2,2,Female,English,Chrome,Linux,915,412,2.62085,
111,condition1,fat,woman2_happy_fat,woman,[0.55],2364,47,,[],29,Yes,,2,2,Female,English,Chrome,Linux,915,412,2.62085,
111,condition1,wooden,spoon_wooden_clean,spoon,[0.04],2805,48,,[],29,Yes,,2,2,Female,English,Chrome,Linux,915,412,2.62085,
91,condition1,,,Elizabeth,Elizabeth,0,1,bot_check,[],50,Yes,Very interesting experiment. It is interesting that there can be a degree scale of yes or no.,3,2,Female,English,Chrome,Windows,900,1600,9.8474,
91,condition1,short,pencil_short_black,pencil,[0.93],36988,3,,[],50,Yes,Very interesting experiment. It is interesting that there can be a degree scale of yes or no.,3,2,Female,English,Chrome,Windows,900,1600,9.8474,
91,condition1,small,bottle_glass_small,bottle,[0.93],12997,4,,[],50,Yes,Very interesting experiment. It is interesting that there can be a degree scale of yes or no.,3,2,Female,English,Chrome,Windows,900,1600,9.8474,
91,condition1,fat,woman2_happy_fat,woman,[0.98],7148,5,,[],50,Yes,Very interesting experiment. It is interesting that there can be a degree scale of yes or no.,3,2,Female,English,Chrome,Windows,900,1600,9.8474,
91,condition1,red,frog_spotted_red,frog,[0.04],13764,6,,[],50,Yes,Very interesting experiment. It is interesting that there can be a degree scale of yes or no.,3,2,Female,English,Chrome,Windows,900,1600,9.8474,
91,condition1,square,picture_bw_square,picture,[0.02],8829,7,,[],50,Yes,Very interesting experiment. It is interesting that there can be a degree scale of yes or no.,3,2,Female,English,Chrome,Windows,900,1600,9.8474,
91,condition1,striped,frog_striped_green,frog,[0.01],6897,8,,[],50,Yes,Very interesting experiment. It is interesting that there can be a degree scale of yes or no.,3,2,Female,English,Chrome,Windows,900,1600,9.8474,
91,condition1,hat-wearing,man2_bearded_hatted,man,[0],9453,9,,[],50,Yes,Very interesting experiment. It is interesting that there can be a degree scale of yes or no.,3,2,Female,English,Chrome,Windows,900,1600,9.8474,
91,condition1,blond,hair_curly_blonde,hair,[0.01],7520,10,,[],50,Yes,Very interesting experiment. It is interesting that there can be a degree scale of yes or no.,3,2,Female,English,Chrome,Windows,900,1600,9.8474,
91,condition1,wet,shorts_wet_green,shorts,[0.01],6887,11,,[],50,Yes,Very interesting experiment. It is interesting that there can be a degree scale of yes or no.,3,2,Female,English,Chrome,Windows,900,1600,9.8474,
91,condition1,bearded,man_old_bearded,man,[0.01],5385,12,,[],50,Yes,Very interesting experiment. It is interesting that there can be a degree scale of yes or no.,3,2,Female,English,Chrome,Windows,900,1600,9.8474,
91,condition1,triangular,earring_big_triangular,earring,[0.01],6534,13,,[],50,Yes,Very interesting experiment. It is interesting that there can be a degree scale of yes or no.,3,2,Female,English,Chrome,Windows,900,1600,9.8474,
91,condition1,high,table_metal_high,table,[0.96],8750,14,,[],50,Yes,Very interesting experiment. It is interesting that there can be a degree scale of yes or no.,3,2,Female,English,Chrome,Windows,900,1600,9.8474,
91,condition1,long,pencil_long_black,pencil,[0.95],13548,15,,[],50,Yes,Very interesting experiment. It is interesting that there can be a degree scale of yes or no.,3,2,Female,English,Chrome,Windows,900,1600,9.8474,
91,condition1,plastic,bottle_plastic_big,bottle,[0.02],5929,16,,[],50,Yes,Very interesting experiment. It is interesting that there can be a degree scale of yes or no.,3,2,Female,English,Chrome,Windows,900,1600,9.8474,
91,condition1,open,box_open_cardboard,box,[0.01],5578,17,,[],50,Yes,Very interesting experiment. It is interesting that there can be a degree scale of yes or no.,3,2,Female,English,Chrome,Windows,900,1600,9.8474,
91,condition1,glass,bottle_glass_big,bottle,[0.02],5387,18,,[],50,Yes,Very interesting experiment. It is interesting that there can be a degree scale of yes or no.,3,2,Female,English,Chrome,Windows,900,1600,9.8474,
91,condition1,mustache-touting,man2_mustached_glassed,man,[0.06],8920,19,,[],50,Yes,Very interesting experiment. It is interesting that there can be a degree scale of yes or no.,3,2,Female,English,Chrome,Windows,900,1600,9.8474,
91,condition1,brown,hair_curly_brown,hair,[0.01],5356,20,,[],50,Yes,Very interesting experiment. It is interesting that there can be a degree scale of yes or no.,3,2,Female,English,Chrome,Windows,900,1600,9.8474,
91,condition1,clean-shaven,man_old_cleanshaven,man,[0.93],6040,21,,[],50,Yes,Very interesting experiment. It is interesting that there can be a degree scale of yes or no.,3,2,Female,English,Chrome,Windows,900,1600,9.8474,
91,condition1,black and white,picture_bw_rectangular,picture,[0.02],13596,22,,[],50,Yes,Very interesting experiment. It is interesting that there can be a degree scale of yes or no.,3,2,Female,English,Chrome,Windows,900,1600,9.8474,
91,condition1,spotted,frog_spotted_green,frog,[0.03],11327,23,,[],50,Yes,Very interesting experiment. It is interesting that there can be a degree scale of yes or no.,3,2,Female,English,Chrome,Windows,900,1600,9.8474,
91,condition1,matte,nails_black_matte,nails,[0.92],10711,24,,[],50,Yes,Very interesting experiment. It is interesting that there can be a degree scale of yes or no.,3,2,Female,English,Chrome,Windows,900,1600,9.8474,
91,condition1,glossy,nails_black_glossy,nails,[0.58],12616,25,,[],50,Yes,Very interesting experiment. It is interesting that there can be a degree scale of yes or no.,3,2,Female,English,Chrome,Windows,900,1600,9.8474,
91,condition1,green,frog_spotted_green,frog,[0.05],8788,26,,[],50,Yes,Very interesting experiment. It is interesting that there can be a degree scale of yes or no.,3,2,Female,English,Chrome,Windows,900,1600,9.8474,
91,condition1,happy,woman_old_happy,woman,[0.99],9021,27,,[],50,Yes,Very interesting experiment. It is interesting that there can be a degree scale of yes or no.,3,2,Female,English,Chrome,Windows,900,1600,9.8474,
91,condition1,clean,spoon_metal_clean,spoon,[0.73],8669,28,,[],50,Yes,Very interesting experiment. It is interesting that there can be a degree scale of yes or no.,3,2,Female,English,Chrome,Windows,900,1600,9.8474,
91,condition1,skinny,woman2_happy_skinny,woman,[1],7369,29,,[],50,Yes,Very interesting experiment. It is interesting that there can be a degree scale of yes or no.,3,2,Female,English,Chrome,Windows,900,1600,9.8474,
91,condition1,blue,pencil_long_blue,pencil,[0],9655,30,,[],50,Yes,Very interesting experiment. It is interesting that there can be a degree scale of yes or no.,3,2,Female,English,Chrome,Windows,900,1600,9.8474,
91,condition1,colored,picture_colored_rectangular,picture,[0],6072,31,,[],50,Yes,Very interesting experiment. It is interesting that there can be a degree scale of yes or no.,3,2,Female,English,Chrome,Windows,900,1600,9.8474,
91,condition1,old,man_old_bearded,man,[0.99],8256,32,,[],50,Yes,Very interesting experiment. It is interesting that there can be a degree scale of yes or no.,3,2,Female,English,Chrome,Windows,900,1600,9.8474,
91,condition1,young,man_young_bearded,man,[0.99],5829,33,,[],50,Yes,Very interesting experiment. It is interesting that there can be a degree scale of yes or no.,3,2,Female,English,Chrome,Windows,900,1600,9.8474,
91,condition1,sad,woman_old_sad,woman,[0.99],5032,34,,[],50,Yes,Very interesting experiment. It is interesting that there can be a degree scale of yes or no.,3,2,Female,English,Chrome,Windows,900,1600,9.8474,
91,condition1,metal,spoon_metal_clean,spoon,[0],12252,35,,[],50,Yes,Very interesting experiment. It is interesting that there can be a degree scale of yes or no.,3,2,Female,English,Chrome,Windows,900,1600,9.8474,
91,condition1,dirty,spoon_metal_dirty,spoon,[0.66],9524,36,,[],50,Yes,Very interesting experiment. It is interesting that there can be a degree scale of yes or no.,3,2,Female,English,Chrome,Windows,900,1600,9.8474,
91,condition1,wooden,spoon_wooden_clean,spoon,[0.01],6273,37,,[],50,Yes,Very interesting experiment. It is interesting that there can be a degree scale of yes or no.,3,2,Female,English,Chrome,Windows,900,1600,9.8474,
91,condition1,closed,box_closed_cardboard,box,[0],4620,38,,[],50,Yes,Very interesting experiment. It is interesting that there can be a degree scale of yes or no.,3,2,Female,English,Chrome,Windows,900,1600,9.8474,
91,condition1,curly,hair_curly_blonde,hair,[0.75],13621,39,,[],50,Yes,Very interesting experiment. It is interesting that there can be a degree scale of yes or no.,3,2,Female,English,Chrome,Windows,900,1600,9.8474,
91,condition1,big,bottle_glass_big,bottle,[0.88],4471,40,,[],50,Yes,Very interesting experiment. It is interesting that there can be a degree scale of yes or no.,3,2,Female,English,Chrome,Windows,900,1600,9.8474,
91,condition1,rectangular,picture_bw_rectangular,picture,[0.01],4219,41,,[],50,Yes,Very interesting experiment. It is interesting that there can be a degree scale of yes or no.,3,2,Female,English,Chrome,Windows,900,1600,9.8474,
91,condition1,glasses-wearing,man2_bearded_glassed,man,[0],5456,42,,[],50,Yes,Very interesting experiment. It is interesting that there can be a degree scale of yes or no.,3,2,Female,English,Chrome,Windows,900,1600,9.8474,
91,condition1,straight,hair_straight_blond,hair,[0.7],13019,43,,[],50,Yes,Very interesting experiment. It is interesting that there can be a degree scale of yes or no.,3,2,Female,English,Chrome,Windows,900,1600,9.8474,
91,condition1,black,nails_black_glossy,nails,[0.01],6966,44,,[],50,Yes,Very interesting experiment. It is interesting that there can be a degree scale of yes or no.,3,2,Female,English,Chrome,Windows,900,1600,9.8474,
91,condition1,cardboard,box_closed_cardboard,box,[0.53],10451,45,,[],50,Yes,Very interesting experiment. It is interesting that there can be a degree scale of yes or no.,3,2,Female,English,Chrome,Windows,900,1600,9.8474,
91,condition1,low,table_metal_low,table,[0.82],7310,46,,[],50,Yes,Very interesting experiment. It is interesting that there can be a degree scale of yes or no.,3,2,Female,English,Chrome,Windows,900,1600,9.8474,
91,condition1,dry,shorts_dry_green,shorts,[0.02],9232,47,,[],50,Yes,Very interesting experiment. It is interesting that there can be a degree scale of yes or no.,3,2,Female,English,Chrome,Windows,900,1600,9.8474,
91,condition1,round,earring_big_round,earring,[0.01],5798,48,,[],50,Yes,Very interesting experiment. It is interesting that there can be a degree scale of yes or no.,3,2,Female,English,Chrome,Windows,900,1600,9.8474,
112,condition1,,,Linda,Linda,0,1,bot_check,[],29,Yes,,3,1,Male,English,Firefox,Windows,1080,1920,4.899633333333333,
112,condition1,big,bottle_glass_big,bottle,[0],9090,3,,[],29,Yes,,3,1,Male,English,Firefox,Windows,1080,1920,4.899633333333333,
112,condition1,closed,box_closed_cardboard,box,[0],2651,4,,[],29,Yes,,3,1,Male,English,Firefox,Windows,1080,1920,4.899633333333333,
112,condition1,glass,bottle_glass_big,bottle,[0],4399,5,,[],29,Yes,,3,1,Male,English,Firefox,Windows,1080,1920,4.899633333333333,
112,condition1,long,pencil_long_black,pencil,[0],3716,6,,[],29,Yes,,3,1,Male,English,Firefox,Windows,1080,1920,4.899633333333333,
112,condition1,hat-wearing,man2_bearded_hatted,man,[0],2339,7,,[],29,Yes,,3,1,Male,English,Firefox,Windows,1080,1920,4.899633333333333,
112,condition1,straight,hair_straight_blond,hair,[0],9791,8,,[],29,Yes,,3,1,Male,English,Firefox,Windows,1080,1920,4.899633333333333,
112,condition1,round,earring_big_round,earring,[0],2153,9,,[],29,Yes,,3,1,Male,English,Firefox,Windows,1080,1920,4.899633333333333,
112,condition1,wet,shorts_wet_green,shorts,[0],4045,10,,[],29,Yes,,3,1,Male,English,Firefox,Windows,1080,1920,4.899633333333333,
112,condition1,fat,woman2_happy_fat,woman,[0],3092,11,,[],29,Yes,,3,1,Male,English,Firefox,Windows,1080,1920,4.899633333333333,
112,condition1,old,man_old_bearded,man,[0],17237,12,,[],29,Yes,,3,1,Male,English,Firefox,Windows,1080,1920,4.899633333333333,
112,condition1,mustache-touting,man2_mustached_glassed,man,[0],11246,13,,[],29,Yes,,3,1,Male,English,Firefox,Windows,1080,1920,4.899633333333333,
112,condition1,blue,pencil_long_blue,pencil,[0],1954,14,,[],29,Yes,,3,1,Male,English,Firefox,Windows,1080,1920,4.899633333333333,
112,condition1,young,man_young_bearded,man,[0],1883,15,,[],29,Yes,,3,1,Male,English,Firefox,Windows,1080,1920,4.899633333333333,
112,condition1,wooden,spoon_wooden_clean,spoon,[0],7955,16,,[],29,Yes,,3,1,Male,English,Firefox,Windows,1080,1920,4.899633333333333,
112,condition1,sad,woman_old_sad,woman,[0],3509,17,,[],29,Yes,,3,1,Male,English,Firefox,Windows,1080,1920,4.899633333333333,
112,condition1,curly,hair_curly_blonde,hair,[0],1602,18,,[],29,Yes,,3,1,Male,English,Firefox,Windows,1080,1920,4.899633333333333,
112,condition1,square,picture_bw_square,picture,[0],30629,19,,[],29,Yes,,3,1,Male,English,Firefox,Windows,1080,1920,4.899633333333333,
112,condition1,low,table_metal_low,table,[0],1845,20,,[],29,Yes,,3,1,Male,English,Firefox,Windows,1080,1920,4.899633333333333,
112,condition1,glasses-wearing,man2_bearded_glassed,man,[0],1800,21,,[],29,Yes,,3,1,Male,English,Firefox,Windows,1080,1920,4.899633333333333,
112,condition1,black,nails_black_glossy,nails,[0],2092,22,,[],29,Yes,,3,1,Male,English,Firefox,Windows,1080,1920,4.899633333333333,
112,condition1,happy,woman_old_happy,woman,[0],1824,23,,[],29,Yes,,3,1,Male,English,Firefox,Windows,1080,1920,4.899633333333333,
112,condition1,cardboard,box_closed_cardboard,box,[0],1642,24,,[],29,Yes,,3,1,Male,English,Firefox,Windows,1080,1920,4.899633333333333,
112,condition1,triangular,earring_big_triangular,earring,[0],2076,25,,[],29,Yes,,3,1,Male,English,Firefox,Windows,1080,1920,4.899633333333333,
112,condition1,high,table_metal_high,table,[0],6433,26,,[],29,Yes,,3,1,Male,English,Firefox,Windows,1080,1920,4.899633333333333,
112,condition1,striped,frog_striped_green,frog,[0],3310,27,,[],29,Yes,,3,1,Male,English,Firefox,Windows,1080,1920,4.899633333333333,
112,condition1,colored,picture_colored_rectangular,picture,[0],16806,28,,[],29,Yes,,3,1,Male,English,Firefox,Windows,1080,1920,4.899633333333333,
112,condition1,plastic,bottle_plastic_big,bottle,[0],2209,29,,[],29,Yes,,3,1,Male,English,Firefox,Windows,1080,1920,4.899633333333333,
112,condition1,glossy,nails_black_glossy,nails,[0],6082,30,,[],29,Yes,,3,1,Male,English,Firefox,Windows,1080,1920,4.899633333333333,
112,condition1,black and white,picture_bw_rectangular,picture,[0],20417,31,,[],29,Yes,,3,1,Male,English,Firefox,Windows,1080,1920,4.899633333333333,
112,condition1,open,box_open_cardboard,box,[0],17832,32,,[],29,Yes,,3,1,Male,English,Firefox,Windows,1080,1920,4.899633333333333,
112,condition1,dirty,spoon_metal_dirty,spoon,[0],2417,33,,[],29,Yes,,3,1,Male,English,Firefox,Windows,1080,1920,4.899633333333333,
112,condition1,brown,hair_curly_brown,hair,[0],1581,34,,[],29,Yes,,3,1,Male,English,Firefox,Windows,1080,1920,4.899633333333333,
112,condition1,bearded,man_old_bearded,man,[0],1912,35,,[],29,Yes,,3,1,Male,English,Firefox,Windows,1080,1920,4.899633333333333,
112,condition1,dry,shorts_dry_green,shorts,[0],6032,36,,[],29,Yes,,3,1,Male,English,Firefox,Windows,1080,1920,4.899633333333333,
112,condition1,green,frog_spotted_green,frog,[0],1859,37,,[],29,Yes,,3,1,Male,English,Firefox,Windows,1080,1920,4.899633333333333,
112,condition1,skinny,woman2_happy_skinny,woman,[0],1513,38,,[],29,Yes,,3,1,Male,English,Firefox,Windows,1080,1920,4.899633333333333,
112,condition1,clean-shaven,man_old_cleanshaven,man,[0],7431,39,,[],29,Yes,,3,1,Male,English,Firefox,Windows,1080,1920,4.899633333333333,
112,condition1,blond,hair_curly_blonde,hair,[0],4054,40,,[],29,Yes,,3,1,Male,English,Firefox,Windows,1080,1920,4.899633333333333,
112,condition1,rectangular,picture_bw_rectangular,picture,[0],2980,41,,[],29,Yes,,3,1,Male,English,Firefox,Windows,1080,1920,4.899633333333333,
112,condition1,matte,nails_black_matte,nails,[0],1628,42,,[],29,Yes,,3,1,Male,English,Firefox,Windows,1080,1920,4.899633333333333,
112,condition1,spotted,frog_spotted_green,frog,[0],1865,43,,[],29,Yes,,3,1,Male,English,Firefox,Windows,1080,1920,4.899633333333333,
112,condition1,small,bottle_glass_small,bottle,[0],3261,44,,[],29,Yes,,3,1,Male,English,Firefox,Windows,1080,1920,4.899633333333333,
112,condition1,short,pencil_short_black,pencil,[0],3587,45,,[],29,Yes,,3,1,Male,English,Firefox,Windows,1080,1920,4.899633333333333,
112,condition1,clean,spoon_metal_clean,spoon,[0],23679,46,,[],29,Yes,,3,1,Male,English,Firefox,Windows,1080,1920,4.899633333333333,
112,condition1,red,frog_spotted_red,frog,[0],1946,47,,[],29,Yes,,3,1,Male,English,Firefox,Windows,1080,1920,4.899633333333333,
112,condition1,metal,spoon_metal_clean,spoon,[0],2097,48,,[],29,Yes,,3,1,Male,English,Firefox,Windows,1080,1920,4.899633333333333,
92,condition1,,,Elizabeth,Elizabeth,0,1,bot_check,[],49,Yes,I think the first 20% of my answers were not accurate until I started to really understand how to interpret this test. After that I'm more confident of my answers. Sorry for the problem this may occur. ,4,1,Male,english,Chrome,Mac,1200,1920,5.43495,
92,condition1,glossy,nails_black_glossy,nails,[0.49],25952,3,,[],49,Yes,I think the first 20% of my answers were not accurate until I started to really understand how to interpret this test. After that I'm more confident of my answers. Sorry for the problem this may occur. ,4,1,Male,english,Chrome,Mac,1200,1920,5.43495,
92,condition1,skinny,woman2_happy_skinny,woman,[0.5],2551,4,,[],49,Yes,I think the first 20% of my answers were not accurate until I started to really understand how to interpret this test. After that I'm more confident of my answers. Sorry for the problem this may occur. ,4,1,Male,english,Chrome,Mac,1200,1920,5.43495,
92,condition1,wet,shorts_wet_green,shorts,[0.49],3496,5,,[],49,Yes,I think the first 20% of my answers were not accurate until I started to really understand how to interpret this test. After that I'm more confident of my answers. Sorry for the problem this may occur. ,4,1,Male,english,Chrome,Mac,1200,1920,5.43495,
92,condition1,clean,spoon_metal_clean,spoon,[0.54],4352,6,,[],49,Yes,I think the first 20% of my answers were not accurate until I started to really understand how to interpret this test. After that I'm more confident of my answers. Sorry for the problem this may occur. ,4,1,Male,english,Chrome,Mac,1200,1920,5.43495,
92,condition1,colored,picture_colored_rectangular,picture,[0.49],4552,7,,[],49,Yes,I think the first 20% of my answers were not accurate until I started to really understand how to interpret this test. After that I'm more confident of my answers. Sorry for the problem this may occur. ,4,1,Male,english,Chrome,Mac,1200,1920,5.43495,
92,condition1,dry,shorts_dry_green,shorts,[0.49],1688,8,,[],49,Yes,I think the first 20% of my answers were not accurate until I started to really understand how to interpret this test. After that I'm more confident of my answers. Sorry for the problem this may occur. ,4,1,Male,english,Chrome,Mac,1200,1920,5.43495,
92,condition1,matte,nails_black_matte,nails,[0.5],1416,9,,[],49,Yes,I think the first 20% of my answers were not accurate until I started to really understand how to interpret this test. After that I'm more confident of my answers. Sorry for the problem this may occur. ,4,1,Male,english,Chrome,Mac,1200,1920,5.43495,
92,condition1,black and white,picture_bw_rectangular,picture,[0.43],4688,10,,[],49,Yes,I think the first 20% of my answers were not accurate until I started to really understand how to interpret this test. After that I'm more confident of my answers. Sorry for the problem this may occur. ,4,1,Male,english,Chrome,Mac,1200,1920,5.43495,
92,condition1,spotted,frog_spotted_green,frog,[0.47],2504,11,,[],49,Yes,I think the first 20% of my answers were not accurate until I started to really understand how to interpret this test. After that I'm more confident of my answers. Sorry for the problem this may occur. ,4,1,Male,english,Chrome,Mac,1200,1920,5.43495,
92,condition1,big,bottle_glass_big,bottle,[0.48],1280,12,,[],49,Yes,I think the first 20% of my answers were not accurate until I started to really understand how to interpret this test. After that I'm more confident of my answers. Sorry for the problem this may occur. ,4,1,Male,english,Chrome,Mac,1200,1920,5.43495,
92,condition1,brown,hair_curly_brown,hair,[0.5],2640,13,,[],49,Yes,I think the first 20% of my answers were not accurate until I started to really understand how to interpret this test. After that I'm more confident of my answers. Sorry for the problem this may occur. ,4,1,Male,english,Chrome,Mac,1200,1920,5.43495,
92,condition1,young,man_young_bearded,man,[0.5],1768,14,,[],49,Yes,I think the first 20% of my answers were not accurate until I started to really understand how to interpret this test. After that I'm more confident of my answers. Sorry for the problem this may occur. ,4,1,Male,english,Chrome,Mac,1200,1920,5.43495,
92,condition1,green,frog_spotted_green,frog,[0.74],5328,15,,[],49,Yes,I think the first 20% of my answers were not accurate until I started to really understand how to interpret this test. After that I'm more confident of my answers. Sorry for the problem this may occur. ,4,1,Male,english,Chrome,Mac,1200,1920,5.43495,
92,condition1,glasses-wearing,man2_bearded_glassed,man,[1],7392,16,,[],49,Yes,I think the first 20% of my answers were not accurate until I started to really understand how to interpret this test. After that I'm more confident of my answers. Sorry for the problem this may occur. ,4,1,Male,english,Chrome,Mac,1200,1920,5.43495,
92,condition1,round,earring_big_round,earring,[0.91],2344,17,,[],49,Yes,I think the first 20% of my answers were not accurate until I started to really understand how to interpret this test. After that I'm more confident of my answers. Sorry for the problem this may occur. ,4,1,Male,english,Chrome,Mac,1200,1920,5.43495,
92,condition1,hat-wearing,man2_bearded_hatted,man,[0.95],2280,18,,[],49,Yes,I think the first 20% of my answers were not accurate until I started to really understand how to interpret this test. After that I'm more confident of my answers. Sorry for the problem this may occur. ,4,1,Male,english,Chrome,Mac,1200,1920,5.43495,
92,condition1,curly,hair_curly_blonde,hair,[1],8880,19,,[],49,Yes,I think the first 20% of my answers were not accurate until I started to really understand how to interpret this test. After that I'm more confident of my answers. Sorry for the problem this may occur. ,4,1,Male,english,Chrome,Mac,1200,1920,5.43495,
92,condition1,cardboard,box_closed_cardboard,box,[0.69],5192,20,,[],49,Yes,I think the first 20% of my answers were not accurate until I started to really understand how to interpret this test. After that I'm more confident of my answers. Sorry for the problem this may occur. ,4,1,Male,english,Chrome,Mac,1200,1920,5.43495,
92,condition1,glass,bottle_glass_big,bottle,[0.2],7712,21,,[],49,Yes,I think the first 20% of my answers were not accurate until I started to really understand how to interpret this test. After that I'm more confident of my answers. Sorry for the problem this may occur. ,4,1,Male,english,Chrome,Mac,1200,1920,5.43495,
92,condition1,small,bottle_glass_small,bottle,[1],4856,22,,[],49,Yes,I think the first 20% of my answers were not accurate until I started to really understand how to interpret this test. After that I'm more confident of my answers. Sorry for the problem this may occur. ,4,1,Male,english,Chrome,Mac,1200,1920,5.43495,
92,condition1,straight,hair_straight_blond,hair,[0.79],2112,23,,[],49,Yes,I think the first 20% of my answers were not accurate until I started to really understand how to interpret this test. After that I'm more confident of my answers. Sorry for the problem this may occur. ,4,1,Male,english,Chrome,Mac,1200,1920,5.43495,
92,condition1,bearded,man_old_bearded,man,[0.62],3872,24,,[],49,Yes,I think the first 20% of my answers were not accurate until I started to really understand how to interpret this test. After that I'm more confident of my answers. Sorry for the problem this may occur. ,4,1,Male,english,Chrome,Mac,1200,1920,5.43495,
92,condition1,sad,woman_old_sad,woman,[0.98],2560,25,,[],49,Yes,I think the first 20% of my answers were not accurate until I started to really understand how to interpret this test. After that I'm more confident of my answers. Sorry for the problem this may occur. ,4,1,Male,english,Chrome,Mac,1200,1920,5.43495,
92,condition1,short,pencil_short_black,pencil,[0.99],2968,26,,[],49,Yes,I think the first 20% of my answers were not accurate until I started to really understand how to interpret this test. After that I'm more confident of my answers. Sorry for the problem this may occur. ,4,1,Male,english,Chrome,Mac,1200,1920,5.43495,
92,condition1,blond,hair_curly_blonde,hair,[0.89],2200,27,,[],49,Yes,I think the first 20% of my answers were not accurate until I started to really understand how to interpret this test. After that I'm more confident of my answers. Sorry for the problem this may occur. ,4,1,Male,english,Chrome,Mac,1200,1920,5.43495,
92,condition1,triangular,earring_big_triangular,earring,[0.46],5736,28,,[],49,Yes,I think the first 20% of my answers were not accurate until I started to really understand how to interpret this test. After that I'm more confident of my answers. Sorry for the problem this may occur. ,4,1,Male,english,Chrome,Mac,1200,1920,5.43495,
92,condition1,long,pencil_long_black,pencil,[0.9],3256,29,,[],49,Yes,I think the first 20% of my answers were not accurate until I started to really understand how to interpret this test. After that I'm more confident of my answers. Sorry for the problem this may occur. ,4,1,Male,english,Chrome,Mac,1200,1920,5.43495,
92,condition1,metal,spoon_metal_clean,spoon,[0.23],2593,30,,[],49,Yes,I think the first 20% of my answers were not accurate until I started to really understand how to interpret this test. After that I'm more confident of my answers. Sorry for the problem this may occur. ,4,1,Male,english,Chrome,Mac,1200,1920,5.43495,
92,condition1,clean-shaven,man_old_cleanshaven,man,[0.68],2456,31,,[],49,Yes,I think the first 20% of my answers were not accurate until I started to really understand how to interpret this test. After that I'm more confident of my answers. Sorry for the problem this may occur. ,4,1,Male,english,Chrome,Mac,1200,1920,5.43495,
92,condition1,old,man_old_bearded,man,[0.97],2816,32,,[],49,Yes,I think the first 20% of my answers were not accurate until I started to really understand how to interpret this test. After that I'm more confident of my answers. Sorry for the problem this may occur. ,4,1,Male,english,Chrome,Mac,1200,1920,5.43495,
92,condition1,rectangular,picture_bw_rectangular,picture,[0.17],4992,33,,[],49,Yes,I think the first 20% of my answers were not accurate until I started to really understand how to interpret this test. After that I'm more confident of my answers. Sorry for the problem this may occur. ,4,1,Male,english,Chrome,Mac,1200,1920,5.43495,
92,condition1,dirty,spoon_metal_dirty,spoon,[1],5464,34,,[],49,Yes,I think the first 20% of my answers were not accurate until I started to really understand how to interpret this test. After that I'm more confident of my answers. Sorry for the problem this may occur. ,4,1,Male,english,Chrome,Mac,1200,1920,5.43495,
92,condition1,wooden,spoon_wooden_clean,spoon,[0.7],4744,35,,[],49,Yes,I think the first 20% of my answers were not accurate until I started to really understand how to interpret this test. After that I'm more confident of my answers. Sorry for the problem this may occur. ,4,1,Male,english,Chrome,Mac,1200,1920,5.43495,
92,condition1,plastic,bottle_plastic_big,bottle,[0.11],2976,36,,[],49,Yes,I think the first 20% of my answers were not accurate until I started to really understand how to interpret this test. After that I'm more confident of my answers. Sorry for the problem this may occur. ,4,1,Male,english,Chrome,Mac,1200,1920,5.43495,
92,condition1,black,nails_black_glossy,nails,[0.61],3568,37,,[],49,Yes,I think the first 20% of my answers were not accurate until I started to really understand how to interpret this test. After that I'm more confident of my answers. Sorry for the problem this may occur. ,4,1,Male,english,Chrome,Mac,1200,1920,5.43495,
92,condition1,square,picture_bw_square,picture,[0.31],3888,38,,[],49,Yes,I think the first 20% of my answers were not accurate until I started to really understand how to interpret this test. After that I'm more confident of my answers. Sorry for the problem this may occur. ,4,1,Male,english,Chrome,Mac,1200,1920,5.43495,
92,condition1,open,box_open_cardboard,box,[0.18],5120,39,,[],49,Yes,I think the first 20% of my answers were not accurate until I started to really understand how to interpret this test. After that I'm more confident of my answers. Sorry for the problem this may occur. ,4,1,Male,english,Chrome,Mac,1200,1920,5.43495,
