workerid,proliferate.condition,adj,adj_tr,label,object,response,rt,slide_number_in_experiment,trial_type,catch_trials,subject_information.age,subject_information.asses,subject_information.comments,subject_information.education,subject_information.enjoyment,subject_information.gender,subject_information.language,system.Browser,system.OS,system.screenH,system.screenW,time_in_minutes,error
926,condition1,,,,beyaz,beyaz,0,1,bot_check,[],33,Yes,,4,2,Female,Turkce,Chrome,Mac,900,1440,2.5148,
926,condition1,brown,kahverengi,hair_curly_brown,hair,[0.01],4069,3,,[],33,Yes,,4,2,Female,Turkce,Chrome,Mac,900,1440,2.5148,
926,condition1,striped,çizgili,frog_striped_green,frog,[0.01],4497,4,,[],33,Yes,,4,2,Female,Turkce,Chrome,Mac,900,1440,2.5148,
926,condition1,high,yüksek,table_metal_high,table,[0.99],2310,5,,[],33,Yes,,4,2,Female,Turkce,Chrome,Mac,900,1440,2.5148,
926,condition1,sad,mutsuz,woman_old_sad,woman,[0.99],2202,6,,[],33,Yes,,4,2,Female,Turkce,Chrome,Mac,900,1440,2.5148,
926,condition1,skinny,zayıf,woman2_happy_skinny,woman,[1],2127,7,,[],33,Yes,,4,2,Female,Turkce,Chrome,Mac,900,1440,2.5148,
926,condition1,colored,renkli,picture_colored_rectangular,picture,[0.77],7960,8,,[],33,Yes,,4,2,Female,Turkce,Chrome,Mac,900,1440,2.5148,
926,condition1,small,küçük,bottle_glass_small,bottle,[0.99],3031,9,,[],33,Yes,,4,2,Female,Turkce,Chrome,Mac,900,1440,2.5148,
926,condition1,green,yeşil,frog_spotted_green,frog,[0.04],3868,10,,[],33,Yes,,4,2,Female,Turkce,Chrome,Mac,900,1440,2.5148,
926,condition1,mustache-touting,bıyıklı,man2_mustached_glassed,man,[0],2551,11,,[],33,Yes,,4,2,Female,Turkce,Chrome,Mac,900,1440,2.5148,
926,condition1,fat,şişman,woman2_happy_fat,woman,[0.99],2206,12,,[],33,Yes,,4,2,Female,Turkce,Chrome,Mac,900,1440,2.5148,
926,condition1,blue,mavi,pencil_long_blue,pencil,[0.01],2651,13,,[],33,Yes,,4,2,Female,Turkce,Chrome,Mac,900,1440,2.5148,
926,condition1,spotted,benekli,frog_spotted_green,frog,[0.73],4721,14,,[],33,Yes,,4,2,Female,Turkce,Chrome,Mac,900,1440,2.5148,
926,condition1,glasses-wearing,gözlüklü,man2_bearded_glassed,man,[0.01],2551,15,,[],33,Yes,,4,2,Female,Turkce,Chrome,Mac,900,1440,2.5148,
926,condition1,black and white,siyah beyaz,picture_bw_rectangular,picture,[0.01],1870,16,,[],33,Yes,,4,2,Female,Turkce,Chrome,Mac,900,1440,2.5148,
926,condition1,short,kısa,pencil_short_black,pencil,[0.99],2049,17,,[],33,Yes,,4,2,Female,Turkce,Chrome,Mac,900,1440,2.5148,
926,condition1,round,yuvarlak,earring_big_round,earring,[0.25],7268,18,,[],33,Yes,,4,2,Female,Turkce,Chrome,Mac,900,1440,2.5148,
926,condition1,long,uzun,pencil_long_black,pencil,[0.99],3696,19,,[],33,Yes,,4,2,Female,Turkce,Chrome,Mac,900,1440,2.5148,
926,condition1,closed,kapalı,box_closed_cardboard,box,[0],3456,20,,[],33,Yes,,4,2,Female,Turkce,Chrome,Mac,900,1440,2.5148,
926,condition1,dirty,kirli,spoon_metal_dirty,spoon,[0.66],2791,21,,[],33,Yes,,4,2,Female,Turkce,Chrome,Mac,900,1440,2.5148,
926,condition1,glossy,parlak,nails_black_glossy,nails,[0.1],2859,22,,[],33,Yes,,4,2,Female,Turkce,Chrome,Mac,900,1440,2.5148,
926,condition1,hat-wearing,şapkalı,man2_bearded_hatted,man,[0],1717,23,,[],33,Yes,,4,2,Female,Turkce,Chrome,Mac,900,1440,2.5148,
926,condition1,low,alçak,table_metal_low,table,[0.99],2186,24,,[],33,Yes,,4,2,Female,Turkce,Chrome,Mac,900,1440,2.5148,
926,condition1,matte,mat,nails_black_matte,nails,[0.13],1982,25,,[],33,Yes,,4,2,Female,Turkce,Chrome,Mac,900,1440,2.5148,
926,condition1,plastic,plastik,bottle_plastic_big,bottle,[0],1490,26,,[],33,Yes,,4,2,Female,Turkce,Chrome,Mac,900,1440,2.5148,
926,condition1,square,kare,picture_bw_square,picture,[0.02],1730,27,,[],33,Yes,,4,2,Female,Turkce,Chrome,Mac,900,1440,2.5148,
926,condition1,triangular,üçgen,earring_big_triangular,earring,[0],1758,28,,[],33,Yes,,4,2,Female,Turkce,Chrome,Mac,900,1440,2.5148,
926,condition1,cardboard,karton,box_closed_cardboard,box,[0.01],2226,29,,[],33,Yes,,4,2,Female,Turkce,Chrome,Mac,900,1440,2.5148,
926,condition1,glass,cam,bottle_glass_big,bottle,[0],2342,30,,[],33,Yes,,4,2,Female,Turkce,Chrome,Mac,900,1440,2.5148,
926,condition1,curly,kıvırcık,hair_curly_blonde,hair,[0.16],3633,31,,[],33,Yes,,4,2,Female,Turkce,Chrome,Mac,900,1440,2.5148,
926,condition1,big,büyük,bottle_glass_big,bottle,[0.98],2411,32,,[],33,Yes,,4,2,Female,Turkce,Chrome,Mac,900,1440,2.5148,
926,condition1,old,yaşlı,man_old_bearded,man,[0.97],1878,33,,[],33,Yes,,4,2,Female,Turkce,Chrome,Mac,900,1440,2.5148,
926,condition1,rectangular,dikdörtgen,picture_bw_rectangular,picture,[0],3680,34,,[],33,Yes,,4,2,Female,Turkce,Chrome,Mac,900,1440,2.5148,
926,condition1,dry,kuru,shorts_dry_green,shorts,[0.08],3227,35,,[],33,Yes,,4,2,Female,Turkce,Chrome,Mac,900,1440,2.5148,
926,condition1,open,açık,box_open_cardboard,box,[0],1861,36,,[],33,Yes,,4,2,Female,Turkce,Chrome,Mac,900,1440,2.5148,
926,condition1,bearded,sakallı,man_old_bearded,man,[0],1706,37,,[],33,Yes,,4,2,Female,Turkce,Chrome,Mac,900,1440,2.5148,
926,condition1,clean-shaven,sakalsız,man_old_cleanshaven,man,[0],1462,38,,[],33,Yes,,4,2,Female,Turkce,Chrome,Mac,900,1440,2.5148,
926,condition1,young,genç,man_young_bearded,man,[0.98],2995,39,,[],33,Yes,,4,2,Female,Turkce,Chrome,Mac,900,1440,2.5148,
926,condition1,wooden,tahta,spoon_wooden_clean,spoon,[0.01],2903,40,,[],33,Yes,,4,2,Female,Turkce,Chrome,Mac,900,1440,2.5148,
926,condition1,happy,mutlu,woman_old_happy,woman,[0.98],3736,41,,[],33,Yes,,4,2,Female,Turkce,Chrome,Mac,900,1440,2.5148,
926,condition1,red,kırmızı,frog_spotted_red,frog,[0.02],1594,42,,[],33,Yes,,4,2,Female,Turkce,Chrome,Mac,900,1440,2.5148,
926,condition1,blond,sarı,hair_curly_blonde,hair,[0],1422,43,,[],33,Yes,,4,2,Female,Turkce,Chrome,Mac,900,1440,2.5148,
926,condition1,straight,düz,hair_straight_blond,hair,[0.15],4059,44,,[],33,Yes,,4,2,Female,Turkce,Chrome,Mac,900,1440,2.5148,
926,condition1,wet,ıslak,shorts_wet_green,shorts,[0.13],1873,45,,[],33,Yes,,4,2,Female,Turkce,Chrome,Mac,900,1440,2.5148,
926,condition1,metal,metal,spoon_metal_clean,spoon,[0],1977,46,,[],33,Yes,,4,2,Female,Turkce,Chrome,Mac,900,1440,2.5148,
926,condition1,clean,temiz,spoon_metal_clean,spoon,[0.8],2391,47,,[],33,Yes,,4,2,Female,Turkce,Chrome,Mac,900,1440,2.5148,
926,condition1,black,siyah,nails_black_glossy,nails,[0.01],2183,48,,[],33,Yes,,4,2,Female,Turkce,Chrome,Mac,900,1440,2.5148,
895,condition1,,,,beyaz,beyaz,0,1,bot_check,[],34,Yes,,3,1,Male,Turkce,Firefox,Windows,1080,1920,2.65925,
895,condition1,triangular,üçgen,earring_big_triangular,earring,[0],12686,3,,[],34,Yes,,3,1,Male,Turkce,Firefox,Windows,1080,1920,2.65925,
895,condition1,bearded,sakallı,man_old_bearded,man,[1],6684,4,,[],34,Yes,,3,1,Male,Turkce,Firefox,Windows,1080,1920,2.65925,
895,condition1,plastic,plastik,bottle_plastic_big,bottle,[0],2264,5,,[],34,Yes,,3,1,Male,Turkce,Firefox,Windows,1080,1920,2.65925,
895,condition1,happy,mutlu,woman_old_happy,woman,[1],2014,6,,[],34,Yes,,3,1,Male,Turkce,Firefox,Windows,1080,1920,2.65925,
895,condition1,metal,metal,spoon_metal_clean,spoon,[0],2034,7,,[],34,Yes,,3,1,Male,Turkce,Firefox,Windows,1080,1920,2.65925,
895,condition1,black and white,siyah beyaz,picture_bw_rectangular,picture,[0],3916,8,,[],34,Yes,,3,1,Male,Turkce,Firefox,Windows,1080,1920,2.65925,
895,condition1,young,genç,man_young_bearded,man,[1],1682,9,,[],34,Yes,,3,1,Male,Turkce,Firefox,Windows,1080,1920,2.65925,
895,condition1,rectangular,dikdörtgen,picture_bw_rectangular,picture,[0.03],2816,10,,[],34,Yes,,3,1,Male,Turkce,Firefox,Windows,1080,1920,2.65925,
895,condition1,cardboard,karton,box_closed_cardboard,box,[0],2462,11,,[],34,Yes,,3,1,Male,Turkce,Firefox,Windows,1080,1920,2.65925,
895,condition1,glasses-wearing,gözlüklü,man2_bearded_glassed,man,[0],1611,12,,[],34,Yes,,3,1,Male,Turkce,Firefox,Windows,1080,1920,2.65925,
895,condition1,long,uzun,pencil_long_black,pencil,[0.67],2388,13,,[],34,Yes,,3,1,Male,Turkce,Firefox,Windows,1080,1920,2.65925,
895,condition1,square,kare,picture_bw_square,picture,[0],1558,14,,[],34,Yes,,3,1,Male,Turkce,Firefox,Windows,1080,1920,2.65925,
895,condition1,fat,şişman,woman2_happy_fat,woman,[0.67],2369,15,,[],34,Yes,,3,1,Male,Turkce,Firefox,Windows,1080,1920,2.65925,
895,condition1,skinny,zayıf,woman2_happy_skinny,woman,[0.56],2563,16,,[],34,Yes,,3,1,Male,Turkce,Firefox,Windows,1080,1920,2.65925,
895,condition1,round,yuvarlak,earring_big_round,earring,[0],2320,17,,[],34,Yes,,3,1,Male,Turkce,Firefox,Windows,1080,1920,2.65925,
895,condition1,striped,çizgili,frog_striped_green,frog,[0],1756,18,,[],34,Yes,,3,1,Male,Turkce,Firefox,Windows,1080,1920,2.65925,
895,condition1,straight,düz,hair_straight_blond,hair,[0.36],2966,19,,[],34,Yes,,3,1,Male,Turkce,Firefox,Windows,1080,1920,2.65925,
895,condition1,hat-wearing,şapkalı,man2_bearded_hatted,man,[0.65],1930,20,,[],34,Yes,,3,1,Male,Turkce,Firefox,Windows,1080,1920,2.65925,
895,condition1,clean,temiz,spoon_metal_clean,spoon,[0.8],2546,21,,[],34,Yes,,3,1,Male,Turkce,Firefox,Windows,1080,1920,2.65925,
895,condition1,wooden,tahta,spoon_wooden_clean,spoon,[0.24],2399,22,,[],34,Yes,,3,1,Male,Turkce,Firefox,Windows,1080,1920,2.65925,
895,condition1,big,büyük,bottle_glass_big,bottle,[0.41],4071,23,,[],34,Yes,,3,1,Male,Turkce,Firefox,Windows,1080,1920,2.65925,
895,condition1,colored,renkli,picture_colored_rectangular,picture,[0.44],4006,24,,[],34,Yes,,3,1,Male,Turkce,Firefox,Windows,1080,1920,2.65925,
895,condition1,open,açık,box_open_cardboard,box,[0.7],2772,25,,[],34,Yes,,3,1,Male,Turkce,Firefox,Windows,1080,1920,2.65925,
895,condition1,blue,mavi,pencil_long_blue,pencil,[0],1894,26,,[],34,Yes,,3,1,Male,Turkce,Firefox,Windows,1080,1920,2.65925,
895,condition1,curly,kıvırcık,hair_curly_blonde,hair,[0.64],1918,27,,[],34,Yes,,3,1,Male,Turkce,Firefox,Windows,1080,1920,2.65925,
895,condition1,closed,kapalı,box_closed_cardboard,box,[0.72],2628,28,,[],34,Yes,,3,1,Male,Turkce,Firefox,Windows,1080,1920,2.65925,
895,condition1,wet,ıslak,shorts_wet_green,shorts,[0.62],1885,29,,[],34,Yes,,3,1,Male,Turkce,Firefox,Windows,1080,1920,2.65925,
895,condition1,brown,kahverengi,hair_curly_brown,hair,[0.16],2005,30,,[],34,Yes,,3,1,Male,Turkce,Firefox,Windows,1080,1920,2.65925,
895,condition1,short,kısa,pencil_short_black,pencil,[0.21],1925,31,,[],34,Yes,,3,1,Male,Turkce,Firefox,Windows,1080,1920,2.65925,
895,condition1,dry,kuru,shorts_dry_green,shorts,[0],2881,32,,[],34,Yes,,3,1,Male,Turkce,Firefox,Windows,1080,1920,2.65925,
895,condition1,mustache-touting,bıyıklı,man2_mustached_glassed,man,[0.77],1980,33,,[],34,Yes,,3,1,Male,Turkce,Firefox,Windows,1080,1920,2.65925,
895,condition1,glass,cam,bottle_glass_big,bottle,[0.12],2711,34,,[],34,Yes,,3,1,Male,Turkce,Firefox,Windows,1080,1920,2.65925,
895,condition1,small,küçük,bottle_glass_small,bottle,[0.23],1686,35,,[],34,Yes,,3,1,Male,Turkce,Firefox,Windows,1080,1920,2.65925,
895,condition1,matte,mat,nails_black_matte,nails,[0.37],1830,36,,[],34,Yes,,3,1,Male,Turkce,Firefox,Windows,1080,1920,2.65925,
895,condition1,old,yaşlı,man_old_bearded,man,[0.72],1594,37,,[],34,Yes,,3,1,Male,Turkce,Firefox,Windows,1080,1920,2.65925,
895,condition1,sad,mutsuz,woman_old_sad,woman,[1],2872,38,,[],34,Yes,,3,1,Male,Turkce,Firefox,Windows,1080,1920,2.65925,
895,condition1,clean-shaven,sakalsız,man_old_cleanshaven,man,[0.8],1272,39,,[],34,Yes,,3,1,Male,Turkce,Firefox,Windows,1080,1920,2.65925,
895,condition1,red,kırmızı,frog_spotted_red,frog,[0.61],1249,40,,[],34,Yes,,3,1,Male,Turkce,Firefox,Windows,1080,1920,2.65925,
895,condition1,blond,sarı,hair_curly_blonde,hair,[0.5],1059,41,,[],34,Yes,,3,1,Male,Turkce,Firefox,Windows,1080,1920,2.65925,
895,condition1,green,yeşil,frog_spotted_green,frog,[0],2506,42,,[],34,Yes,,3,1,Male,Turkce,Firefox,Windows,1080,1920,2.65925,
895,condition1,glossy,parlak,nails_black_glossy,nails,[0.26],2388,43,,[],34,Yes,,3,1,Male,Turkce,Firefox,Windows,1080,1920,2.65925,
895,condition1,black,siyah,nails_black_glossy,nails,[0.01],1577,44,,[],34,Yes,,3,1,Male,Turkce,Firefox,Windows,1080,1920,2.65925,
895,condition1,spotted,benekli,frog_spotted_green,frog,[0.21],4439,45,,[],34,Yes,,3,1,Male,Turkce,Firefox,Windows,1080,1920,2.65925,
895,condition1,high,yüksek,table_metal_high,table,[0.33],1749,46,,[],34,Yes,,3,1,Male,Turkce,Firefox,Windows,1080,1920,2.65925,
895,condition1,dirty,kirli,spoon_metal_dirty,spoon,[0.83],2588,47,,[],34,Yes,,3,1,Male,Turkce,Firefox,Windows,1080,1920,2.65925,
895,condition1,low,alçak,table_metal_low,table,[0.44],2927,48,,[],34,Yes,,3,1,Male,Turkce,Firefox,Windows,1080,1920,2.65925,
924,condition1,,,,beyaz,beyaz,0,1,bot_check,[],33,Yes,,4,1,Female,Turkce,Chrome,Windows,864,1536,8.567733333333333,
924,condition1,glasses-wearing,gözlüklü,man2_bearded_glassed,man,[0.64],7394,3,,[],33,Yes,,4,1,Female,Turkce,Chrome,Windows,864,1536,8.567733333333333,
924,condition1,sad,mutsuz,woman_old_sad,woman,[0.79],20991,4,,[],33,Yes,,4,1,Female,Turkce,Chrome,Windows,864,1536,8.567733333333333,
924,condition1,small,küçük,bottle_glass_small,bottle,[0.78],2799,5,,[],33,Yes,,4,1,Female,Turkce,Chrome,Windows,864,1536,8.567733333333333,
924,condition1,blond,sarı,hair_curly_blonde,hair,[0.19],2040,6,,[],33,Yes,,4,1,Female,Turkce,Chrome,Windows,864,1536,8.567733333333333,
924,condition1,rectangular,dikdörtgen,picture_bw_rectangular,picture,[0.02],6264,7,,[],33,Yes,,4,1,Female,Turkce,Chrome,Windows,864,1536,8.567733333333333,
924,condition1,glass,cam,bottle_glass_big,bottle,[0.02],3120,8,,[],33,Yes,,4,1,Female,Turkce,Chrome,Windows,864,1536,8.567733333333333,
924,condition1,bearded,sakallı,man_old_bearded,man,[0.65],2400,9,,[],33,Yes,,4,1,Female,Turkce,Chrome,Windows,864,1536,8.567733333333333,
924,condition1,young,genç,man_young_bearded,man,[0.79],1860,10,,[],33,Yes,,4,1,Female,Turkce,Chrome,Windows,864,1536,8.567733333333333,
924,condition1,fat,şişman,woman2_happy_fat,woman,[0.74],1348,11,,[],33,Yes,,4,1,Female,Turkce,Chrome,Windows,864,1536,8.567733333333333,
924,condition1,dirty,kirli,spoon_metal_dirty,spoon,[0.77],1828,12,,[],33,Yes,,4,1,Female,Turkce,Chrome,Windows,864,1536,8.567733333333333,
924,condition1,straight,düz,hair_straight_blond,hair,[0.29],2924,13,,[],33,Yes,,4,1,Female,Turkce,Chrome,Windows,864,1536,8.567733333333333,
924,condition1,colored,renkli,picture_colored_rectangular,picture,[0.73],1464,14,,[],33,Yes,,4,1,Female,Turkce,Chrome,Windows,864,1536,8.567733333333333,
924,condition1,low,alçak,table_metal_low,table,[0.66],2504,15,,[],33,Yes,,4,1,Female,Turkce,Chrome,Windows,864,1536,8.567733333333333,
924,condition1,curly,kıvırcık,hair_curly_blonde,hair,[0.51],2576,16,,[],33,Yes,,4,1,Female,Turkce,Chrome,Windows,864,1536,8.567733333333333,
924,condition1,square,kare,picture_bw_square,picture,[0.02],2024,17,,[],33,Yes,,4,1,Female,Turkce,Chrome,Windows,864,1536,8.567733333333333,
924,condition1,happy,mutlu,woman_old_happy,woman,[0.84],2792,18,,[],33,Yes,,4,1,Female,Turkce,Chrome,Windows,864,1536,8.567733333333333,
924,condition1,long,uzun,pencil_long_black,pencil,[0.66],3240,19,,[],33,Yes,,4,1,Female,Turkce,Chrome,Windows,864,1536,8.567733333333333,
924,condition1,black and white,siyah beyaz,picture_bw_rectangular,picture,[0.03],2271,20,,[],33,Yes,,4,1,Female,Turkce,Chrome,Windows,864,1536,8.567733333333333,
924,condition1,triangular,üçgen,earring_big_triangular,earring,[0.03],2992,21,,[],33,Yes,,4,1,Female,Turkce,Chrome,Windows,864,1536,8.567733333333333,
924,condition1,mustache-touting,bıyıklı,man2_mustached_glassed,man,[0.49],2072,22,,[],33,Yes,,4,1,Female,Turkce,Chrome,Windows,864,1536,8.567733333333333,
924,condition1,spotted,benekli,frog_spotted_green,frog,[0.47],6164,23,,[],33,Yes,,4,1,Female,Turkce,Chrome,Windows,864,1536,8.567733333333333,
924,condition1,matte,mat,nails_black_matte,nails,[0.59],1340,24,,[],33,Yes,,4,1,Female,Turkce,Chrome,Windows,864,1536,8.567733333333333,
924,condition1,metal,metal,spoon_metal_clean,spoon,[0.02],2805,25,,[],33,Yes,,4,1,Female,Turkce,Chrome,Windows,864,1536,8.567733333333333,
924,condition1,striped,çizgili,frog_striped_green,frog,[0.21],3135,26,,[],33,Yes,,4,1,Female,Turkce,Chrome,Windows,864,1536,8.567733333333333,
924,condition1,round,yuvarlak,earring_big_round,earring,[0.12],1840,27,,[],33,Yes,,4,1,Female,Turkce,Chrome,Windows,864,1536,8.567733333333333,
924,condition1,clean-shaven,sakalsız,man_old_cleanshaven,man,[0.54],3280,28,,[],33,Yes,,4,1,Female,Turkce,Chrome,Windows,864,1536,8.567733333333333,
924,condition1,open,açık,box_open_cardboard,box,[0.75],3016,29,,[],33,Yes,,4,1,Female,Turkce,Chrome,Windows,864,1536,8.567733333333333,
924,condition1,big,büyük,bottle_glass_big,bottle,[0.93],2608,30,,[],33,Yes,,4,1,Female,Turkce,Chrome,Windows,864,1536,8.567733333333333,
924,condition1,old,yaşlı,man_old_bearded,man,[0.78],2416,31,,[],33,Yes,,4,1,Female,Turkce,Chrome,Windows,864,1536,8.567733333333333,
924,condition1,green,yeşil,frog_spotted_green,frog,[0.15],2655,32,,[],33,Yes,,4,1,Female,Turkce,Chrome,Windows,864,1536,8.567733333333333,
924,condition1,hat-wearing,şapkalı,man2_bearded_hatted,man,[0.03],3809,33,,[],33,Yes,,4,1,Female,Turkce,Chrome,Windows,864,1536,8.567733333333333,
924,condition1,wet,ıslak,shorts_wet_green,shorts,[0.59],3119,34,,[],33,Yes,,4,1,Female,Turkce,Chrome,Windows,864,1536,8.567733333333333,
924,condition1,high,yüksek,table_metal_high,table,[0.61],1640,35,,[],33,Yes,,4,1,Female,Turkce,Chrome,Windows,864,1536,8.567733333333333,
924,condition1,short,kısa,pencil_short_black,pencil,[0.71],1383,36,,[],33,Yes,,4,1,Female,Turkce,Chrome,Windows,864,1536,8.567733333333333,
924,condition1,blue,mavi,pencil_long_blue,pencil,[0.12],2000,37,,[],33,Yes,,4,1,Female,Turkce,Chrome,Windows,864,1536,8.567733333333333,
924,condition1,glossy,parlak,nails_black_glossy,nails,[0.72],1584,38,,[],33,Yes,,4,1,Female,Turkce,Chrome,Windows,864,1536,8.567733333333333,
924,condition1,black,siyah,nails_black_glossy,nails,[0.03],3936,39,,[],33,Yes,,4,1,Female,Turkce,Chrome,Windows,864,1536,8.567733333333333,
924,condition1,plastic,plastik,bottle_plastic_big,bottle,[0.04],262144,40,,[],33,Yes,,4,1,Female,Turkce,Chrome,Windows,864,1536,8.567733333333333,
924,condition1,wooden,tahta,spoon_wooden_clean,spoon,[0],1908,41,,[],33,Yes,,4,1,Female,Turkce,Chrome,Windows,864,1536,8.567733333333333,
924,condition1,clean,temiz,spoon_metal_clean,spoon,[0.9],2272,42,,[],33,Yes,,4,1,Female,Turkce,Chrome,Windows,864,1536,8.567733333333333,
924,condition1,closed,kapalı,box_closed_cardboard,box,[0.46],4311,43,,[],33,Yes,,4,1,Female,Turkce,Chrome,Windows,864,1536,8.567733333333333,
924,condition1,cardboard,karton,box_closed_cardboard,box,[0.02],3921,44,,[],33,Yes,,4,1,Female,Turkce,Chrome,Windows,864,1536,8.567733333333333,
924,condition1,dry,kuru,shorts_dry_green,shorts,[0.5],2984,45,,[],33,Yes,,4,1,Female,Turkce,Chrome,Windows,864,1536,8.567733333333333,
924,condition1,skinny,zayıf,woman2_happy_skinny,woman,[0.66],2488,46,,[],33,Yes,,4,1,Female,Turkce,Chrome,Windows,864,1536,8.567733333333333,
924,condition1,red,kırmızı,frog_spotted_red,frog,[0.03],5280,47,,[],33,Yes,,4,1,Female,Turkce,Chrome,Windows,864,1536,8.567733333333333,
924,condition1,brown,kahverengi,hair_curly_brown,hair,[0.02],3456,48,,[],33,Yes,,4,1,Female,Turkce,Chrome,Windows,864,1536,8.567733333333333,
899,condition1,,,,beyaz,Beyaz,0,1,bot_check,[],31,Yes,,4,2,Male,Türkçe,Chrome,Windows,900,1600,3.97985,
899,condition1,wet,ıslak,shorts_wet_green,shorts,[0.7],16593,3,,[],31,Yes,,4,2,Male,Türkçe,Chrome,Windows,900,1600,3.97985,
899,condition1,sad,mutsuz,woman_old_sad,woman,[0.97],4805,4,,[],31,Yes,,4,2,Male,Türkçe,Chrome,Windows,900,1600,3.97985,
899,condition1,glasses-wearing,gözlüklü,man2_bearded_glassed,man,[0],6993,5,,[],31,Yes,,4,2,Male,Türkçe,Chrome,Windows,900,1600,3.97985,
899,condition1,bearded,sakallı,man_old_bearded,man,[0.23],4544,6,,[],31,Yes,,4,2,Male,Türkçe,Chrome,Windows,900,1600,3.97985,
899,condition1,high,yüksek,table_metal_high,table,[0.69],10710,7,,[],31,Yes,,4,2,Male,Türkçe,Chrome,Windows,900,1600,3.97985,
899,condition1,plastic,plastik,bottle_plastic_big,bottle,[0],3379,8,,[],31,Yes,,4,2,Male,Türkçe,Chrome,Windows,900,1600,3.97985,
899,condition1,wooden,tahta,spoon_wooden_clean,spoon,[0.05],2632,9,,[],31,Yes,,4,2,Male,Türkçe,Chrome,Windows,900,1600,3.97985,
899,condition1,short,kısa,pencil_short_black,pencil,[0.68],3420,10,,[],31,Yes,,4,2,Male,Türkçe,Chrome,Windows,900,1600,3.97985,
899,condition1,skinny,zayıf,woman2_happy_skinny,woman,[0.77],2813,11,,[],31,Yes,,4,2,Male,Türkçe,Chrome,Windows,900,1600,3.97985,
899,condition1,metal,metal,spoon_metal_clean,spoon,[0],4191,12,,[],31,Yes,,4,2,Male,Türkçe,Chrome,Windows,900,1600,3.97985,
899,condition1,black,siyah,nails_black_glossy,nails,[0.05],4132,13,,[],31,Yes,,4,2,Male,Türkçe,Chrome,Windows,900,1600,3.97985,
899,condition1,dry,kuru,shorts_dry_green,shorts,[0.6],5146,14,,[],31,Yes,,4,2,Male,Türkçe,Chrome,Windows,900,1600,3.97985,
899,condition1,brown,kahverengi,hair_curly_brown,hair,[0.12],4984,15,,[],31,Yes,,4,2,Male,Türkçe,Chrome,Windows,900,1600,3.97985,
899,condition1,hat-wearing,şapkalı,man2_bearded_hatted,man,[0],4030,16,,[],31,Yes,,4,2,Male,Türkçe,Chrome,Windows,900,1600,3.97985,
899,condition1,triangular,üçgen,earring_big_triangular,earring,[0],2731,17,,[],31,Yes,,4,2,Male,Türkçe,Chrome,Windows,900,1600,3.97985,
899,condition1,clean-shaven,sakalsız,man_old_cleanshaven,man,[0.15],3565,18,,[],31,Yes,,4,2,Male,Türkçe,Chrome,Windows,900,1600,3.97985,
899,condition1,low,alçak,table_metal_low,table,[0.73],2964,19,,[],31,Yes,,4,2,Male,Türkçe,Chrome,Windows,900,1600,3.97985,
899,condition1,open,açık,box_open_cardboard,box,[0.67],2926,20,,[],31,Yes,,4,2,Male,Türkçe,Chrome,Windows,900,1600,3.97985,
899,condition1,curly,kıvırcık,hair_curly_blonde,hair,[0.2],4526,21,,[],31,Yes,,4,2,Male,Türkçe,Chrome,Windows,900,1600,3.97985,
899,condition1,glass,cam,bottle_glass_big,bottle,[0],2468,22,,[],31,Yes,,4,2,Male,Türkçe,Chrome,Windows,900,1600,3.97985,
899,condition1,dirty,kirli,spoon_metal_dirty,spoon,[0.6],6608,23,,[],31,Yes,,4,2,Male,Türkçe,Chrome,Windows,900,1600,3.97985,
899,condition1,small,küçük,bottle_glass_small,bottle,[0.67],4604,24,,[],31,Yes,,4,2,Male,Türkçe,Chrome,Windows,900,1600,3.97985,
899,condition1,clean,temiz,spoon_metal_clean,spoon,[0.63],3080,25,,[],31,Yes,,4,2,Male,Türkçe,Chrome,Windows,900,1600,3.97985,
899,condition1,closed,kapalı,box_closed_cardboard,box,[0.54],2630,26,,[],31,Yes,,4,2,Male,Türkçe,Chrome,Windows,900,1600,3.97985,
899,condition1,matte,mat,nails_black_matte,nails,[0.15],2918,27,,[],31,Yes,,4,2,Male,Türkçe,Chrome,Windows,900,1600,3.97985,
899,condition1,striped,çizgili,frog_striped_green,frog,[0],2184,28,,[],31,Yes,,4,2,Male,Türkçe,Chrome,Windows,900,1600,3.97985,
899,condition1,happy,mutlu,woman_old_happy,woman,[1],3526,29,,[],31,Yes,,4,2,Male,Türkçe,Chrome,Windows,900,1600,3.97985,
899,condition1,glossy,parlak,nails_black_glossy,nails,[0.24],4488,30,,[],31,Yes,,4,2,Male,Türkçe,Chrome,Windows,900,1600,3.97985,
899,condition1,rectangular,dikdörtgen,picture_bw_rectangular,picture,[0.06],3032,31,,[],31,Yes,,4,2,Male,Türkçe,Chrome,Windows,900,1600,3.97985,
899,condition1,red,kırmızı,frog_spotted_red,frog,[0.01],2343,32,,[],31,Yes,,4,2,Male,Türkçe,Chrome,Windows,900,1600,3.97985,
899,condition1,straight,düz,hair_straight_blond,hair,[0.21],3428,33,,[],31,Yes,,4,2,Male,Türkçe,Chrome,Windows,900,1600,3.97985,
899,condition1,young,genç,man_young_bearded,man,[0.29],3961,34,,[],31,Yes,,4,2,Male,Türkçe,Chrome,Windows,900,1600,3.97985,
899,condition1,blue,mavi,pencil_long_blue,pencil,[0.23],3813,35,,[],31,Yes,,4,2,Male,Türkçe,Chrome,Windows,900,1600,3.97985,
899,condition1,green,yeşil,frog_spotted_green,frog,[0.17],2227,36,,[],31,Yes,,4,2,Male,Türkçe,Chrome,Windows,900,1600,3.97985,
899,condition1,spotted,benekli,frog_spotted_green,frog,[0.06],2421,37,,[],31,Yes,,4,2,Male,Türkçe,Chrome,Windows,900,1600,3.97985,
899,condition1,big,büyük,bottle_glass_big,bottle,[0.33],6351,38,,[],31,Yes,,4,2,Male,Türkçe,Chrome,Windows,900,1600,3.97985,
899,condition1,blond,sarı,hair_curly_blonde,hair,[0.15],5345,39,,[],31,Yes,,4,2,Male,Türkçe,Chrome,Windows,900,1600,3.97985,
899,condition1,black and white,siyah beyaz,picture_bw_rectangular,picture,[0.04],6422,40,,[],31,Yes,,4,2,Male,Türkçe,Chrome,Windows,900,1600,3.97985,
899,condition1,old,yaşlı,man_old_bearded,man,[0.35],3976,41,,[],31,Yes,,4,2,Male,Türkçe,Chrome,Windows,900,1600,3.97985,
899,condition1,cardboard,karton,box_closed_cardboard,box,[0.09],2468,42,,[],31,Yes,,4,2,Male,Türkçe,Chrome,Windows,900,1600,3.97985,
899,condition1,square,kare,picture_bw_square,picture,[0.05],3172,43,,[],31,Yes,,4,2,Male,Türkçe,Chrome,Windows,900,1600,3.97985,
899,condition1,long,uzun,pencil_long_black,pencil,[0.65],4032,44,,[],31,Yes,,4,2,Male,Türkçe,Chrome,Windows,900,1600,3.97985,
899,condition1,round,yuvarlak,earring_big_round,earring,[0.03],3820,45,,[],31,Yes,,4,2,Male,Türkçe,Chrome,Windows,900,1600,3.97985,
899,condition1,mustache-touting,bıyıklı,man2_mustached_glassed,man,[0.08],3234,46,,[],31,Yes,,4,2,Male,Türkçe,Chrome,Windows,900,1600,3.97985,
899,condition1,colored,renkli,picture_colored_rectangular,picture,[0.14],5686,47,,[],31,Yes,,4,2,Male,Türkçe,Chrome,Windows,900,1600,3.97985,
899,condition1,fat,şişman,woman2_happy_fat,woman,[0.62],5971,48,,[],31,Yes,,4,2,Male,Türkçe,Chrome,Windows,900,1600,3.97985,
900,condition1,,,,beyaz,beyaz,0,1,bot_check,[],25,Yes,oznel ve nesnelin kisisel farkindaligi fazla oldugu icin cevaplar kisiler arasinda fazla degiskenlik gosterebilir bu yuzden korelasyon bulmakta problem olabilecegini dusunuyorum,4,1,Male,Turkce,Chrome,Windows,900,1440,7.23975,
900,condition1,big,büyük,bottle_glass_big,bottle,[0],24613,3,,[],25,Yes,oznel ve nesnelin kisisel farkindaligi fazla oldugu icin cevaplar kisiler arasinda fazla degiskenlik gosterebilir bu yuzden korelasyon bulmakta problem olabilecegini dusunuyorum,4,1,Male,Turkce,Chrome,Windows,900,1440,7.23975,
900,condition1,blue,mavi,pencil_long_blue,pencil,[0.32],4966,4,,[],25,Yes,oznel ve nesnelin kisisel farkindaligi fazla oldugu icin cevaplar kisiler arasinda fazla degiskenlik gosterebilir bu yuzden korelasyon bulmakta problem olabilecegini dusunuyorum,4,1,Male,Turkce,Chrome,Windows,900,1440,7.23975,
900,condition1,green,yeşil,frog_spotted_green,frog,[0.32],2377,5,,[],25,Yes,oznel ve nesnelin kisisel farkindaligi fazla oldugu icin cevaplar kisiler arasinda fazla degiskenlik gosterebilir bu yuzden korelasyon bulmakta problem olabilecegini dusunuyorum,4,1,Male,Turkce,Chrome,Windows,900,1440,7.23975,
900,condition1,brown,kahverengi,hair_curly_brown,hair,[0.3],1486,6,,[],25,Yes,oznel ve nesnelin kisisel farkindaligi fazla oldugu icin cevaplar kisiler arasinda fazla degiskenlik gosterebilir bu yuzden korelasyon bulmakta problem olabilecegini dusunuyorum,4,1,Male,Turkce,Chrome,Windows,900,1440,7.23975,
900,condition1,small,küçük,bottle_glass_small,bottle,[0],2368,7,,[],25,Yes,oznel ve nesnelin kisisel farkindaligi fazla oldugu icin cevaplar kisiler arasinda fazla degiskenlik gosterebilir bu yuzden korelasyon bulmakta problem olabilecegini dusunuyorum,4,1,Male,Turkce,Chrome,Windows,900,1440,7.23975,
900,condition1,dry,kuru,shorts_dry_green,shorts,[0.39],4416,8,,[],25,Yes,oznel ve nesnelin kisisel farkindaligi fazla oldugu icin cevaplar kisiler arasinda fazla degiskenlik gosterebilir bu yuzden korelasyon bulmakta problem olabilecegini dusunuyorum,4,1,Male,Turkce,Chrome,Windows,900,1440,7.23975,
900,condition1,short,kısa,pencil_short_black,pencil,[0.29],6289,9,,[],25,Yes,oznel ve nesnelin kisisel farkindaligi fazla oldugu icin cevaplar kisiler arasinda fazla degiskenlik gosterebilir bu yuzden korelasyon bulmakta problem olabilecegini dusunuyorum,4,1,Male,Turkce,Chrome,Windows,900,1440,7.23975,
900,condition1,long,uzun,pencil_long_black,pencil,[0.17],1544,10,,[],25,Yes,oznel ve nesnelin kisisel farkindaligi fazla oldugu icin cevaplar kisiler arasinda fazla degiskenlik gosterebilir bu yuzden korelasyon bulmakta problem olabilecegini dusunuyorum,4,1,Male,Turkce,Chrome,Windows,900,1440,7.23975,
900,condition1,hat-wearing,şapkalı,man2_bearded_hatted,man,[0],2400,11,,[],25,Yes,oznel ve nesnelin kisisel farkindaligi fazla oldugu icin cevaplar kisiler arasinda fazla degiskenlik gosterebilir bu yuzden korelasyon bulmakta problem olabilecegini dusunuyorum,4,1,Male,Turkce,Chrome,Windows,900,1440,7.23975,
900,condition1,rectangular,dikdörtgen,picture_bw_rectangular,picture,[0],1598,12,,[],25,Yes,oznel ve nesnelin kisisel farkindaligi fazla oldugu icin cevaplar kisiler arasinda fazla degiskenlik gosterebilir bu yuzden korelasyon bulmakta problem olabilecegini dusunuyorum,4,1,Male,Turkce,Chrome,Windows,900,1440,7.23975,
900,condition1,wooden,tahta,spoon_wooden_clean,spoon,[0],3352,13,,[],25,Yes,oznel ve nesnelin kisisel farkindaligi fazla oldugu icin cevaplar kisiler arasinda fazla degiskenlik gosterebilir bu yuzden korelasyon bulmakta problem olabilecegini dusunuyorum,4,1,Male,Turkce,Chrome,Windows,900,1440,7.23975,
900,condition1,round,yuvarlak,earring_big_round,earring,[0],1512,14,,[],25,Yes,oznel ve nesnelin kisisel farkindaligi fazla oldugu icin cevaplar kisiler arasinda fazla degiskenlik gosterebilir bu yuzden korelasyon bulmakta problem olabilecegini dusunuyorum,4,1,Male,Turkce,Chrome,Windows,900,1440,7.23975,
900,condition1,colored,renkli,picture_colored_rectangular,picture,[0.51],3328,15,,[],25,Yes,oznel ve nesnelin kisisel farkindaligi fazla oldugu icin cevaplar kisiler arasinda fazla degiskenlik gosterebilir bu yuzden korelasyon bulmakta problem olabilecegini dusunuyorum,4,1,Male,Turkce,Chrome,Windows,900,1440,7.23975,
900,condition1,cardboard,karton,box_closed_cardboard,box,[0],2016,16,,[],25,Yes,oznel ve nesnelin kisisel farkindaligi fazla oldugu icin cevaplar kisiler arasinda fazla degiskenlik gosterebilir bu yuzden korelasyon bulmakta problem olabilecegini dusunuyorum,4,1,Male,Turkce,Chrome,Windows,900,1440,7.23975,
900,condition1,happy,mutlu,woman_old_happy,woman,[1],3521,17,,[],25,Yes,oznel ve nesnelin kisisel farkindaligi fazla oldugu icin cevaplar kisiler arasinda fazla degiskenlik gosterebilir bu yuzden korelasyon bulmakta problem olabilecegini dusunuyorum,4,1,Male,Turkce,Chrome,Windows,900,1440,7.23975,
900,condition1,mustache-touting,bıyıklı,man2_mustached_glassed,man,[0],1390,18,,[],25,Yes,oznel ve nesnelin kisisel farkindaligi fazla oldugu icin cevaplar kisiler arasinda fazla degiskenlik gosterebilir bu yuzden korelasyon bulmakta problem olabilecegini dusunuyorum,4,1,Male,Turkce,Chrome,Windows,900,1440,7.23975,
900,condition1,striped,çizgili,frog_striped_green,frog,[0],3224,19,,[],25,Yes,oznel ve nesnelin kisisel farkindaligi fazla oldugu icin cevaplar kisiler arasinda fazla degiskenlik gosterebilir bu yuzden korelasyon bulmakta problem olabilecegini dusunuyorum,4,1,Male,Turkce,Chrome,Windows,900,1440,7.23975,
900,condition1,clean-shaven,sakalsız,man_old_cleanshaven,man,[0.13],3082,20,,[],25,Yes,oznel ve nesnelin kisisel farkindaligi fazla oldugu icin cevaplar kisiler arasinda fazla degiskenlik gosterebilir bu yuzden korelasyon bulmakta problem olabilecegini dusunuyorum,4,1,Male,Turkce,Chrome,Windows,900,1440,7.23975,
900,condition1,clean,temiz,spoon_metal_clean,spoon,[0.66],2894,21,,[],25,Yes,oznel ve nesnelin kisisel farkindaligi fazla oldugu icin cevaplar kisiler arasinda fazla degiskenlik gosterebilir bu yuzden korelasyon bulmakta problem olabilecegini dusunuyorum,4,1,Male,Turkce,Chrome,Windows,900,1440,7.23975,
900,condition1,young,genç,man_young_bearded,man,[0.36],2608,22,,[],25,Yes,oznel ve nesnelin kisisel farkindaligi fazla oldugu icin cevaplar kisiler arasinda fazla degiskenlik gosterebilir bu yuzden korelasyon bulmakta problem olabilecegini dusunuyorum,4,1,Male,Turkce,Chrome,Windows,900,1440,7.23975,
900,condition1,glass,cam,bottle_glass_big,bottle,[0],1512,23,,[],25,Yes,oznel ve nesnelin kisisel farkindaligi fazla oldugu icin cevaplar kisiler arasinda fazla degiskenlik gosterebilir bu yuzden korelasyon bulmakta problem olabilecegini dusunuyorum,4,1,Male,Turkce,Chrome,Windows,900,1440,7.23975,
900,condition1,wet,ıslak,shorts_wet_green,shorts,[0.2],4329,24,,[],25,Yes,oznel ve nesnelin kisisel farkindaligi fazla oldugu icin cevaplar kisiler arasinda fazla degiskenlik gosterebilir bu yuzden korelasyon bulmakta problem olabilecegini dusunuyorum,4,1,Male,Turkce,Chrome,Windows,900,1440,7.23975,
900,condition1,old,yaşlı,man_old_bearded,man,[0.21],2393,25,,[],25,Yes,oznel ve nesnelin kisisel farkindaligi fazla oldugu icin cevaplar kisiler arasinda fazla degiskenlik gosterebilir bu yuzden korelasyon bulmakta problem olabilecegini dusunuyorum,4,1,Male,Turkce,Chrome,Windows,900,1440,7.23975,
900,condition1,square,kare,picture_bw_square,picture,[0],2638,26,,[],25,Yes,oznel ve nesnelin kisisel farkindaligi fazla oldugu icin cevaplar kisiler arasinda fazla degiskenlik gosterebilir bu yuzden korelasyon bulmakta problem olabilecegini dusunuyorum,4,1,Male,Turkce,Chrome,Windows,900,1440,7.23975,
900,condition1,black,siyah,nails_black_glossy,nails,[0],4321,27,,[],25,Yes,oznel ve nesnelin kisisel farkindaligi fazla oldugu icin cevaplar kisiler arasinda fazla degiskenlik gosterebilir bu yuzden korelasyon bulmakta problem olabilecegini dusunuyorum,4,1,Male,Turkce,Chrome,Windows,900,1440,7.23975,
900,condition1,skinny,zayıf,woman2_happy_skinny,woman,[0.75],4087,28,,[],25,Yes,oznel ve nesnelin kisisel farkindaligi fazla oldugu icin cevaplar kisiler arasinda fazla degiskenlik gosterebilir bu yuzden korelasyon bulmakta problem olabilecegini dusunuyorum,4,1,Male,Turkce,Chrome,Windows,900,1440,7.23975,
900,condition1,curly,kıvırcık,hair_curly_blonde,hair,[0.25],2576,29,,[],25,Yes,oznel ve nesnelin kisisel farkindaligi fazla oldugu icin cevaplar kisiler arasinda fazla degiskenlik gosterebilir bu yuzden korelasyon bulmakta problem olabilecegini dusunuyorum,4,1,Male,Turkce,Chrome,Windows,900,1440,7.23975,
900,condition1,plastic,plastik,bottle_plastic_big,bottle,[0],1495,30,,[],25,Yes,oznel ve nesnelin kisisel farkindaligi fazla oldugu icin cevaplar kisiler arasinda fazla degiskenlik gosterebilir bu yuzden korelasyon bulmakta problem olabilecegini dusunuyorum,4,1,Male,Turkce,Chrome,Windows,900,1440,7.23975,
900,condition1,straight,düz,hair_straight_blond,hair,[0],2328,31,,[],25,Yes,oznel ve nesnelin kisisel farkindaligi fazla oldugu icin cevaplar kisiler arasinda fazla degiskenlik gosterebilir bu yuzden korelasyon bulmakta problem olabilecegini dusunuyorum,4,1,Male,Turkce,Chrome,Windows,900,1440,7.23975,
900,condition1,fat,şişman,woman2_happy_fat,woman,[0.7],2184,32,,[],25,Yes,oznel ve nesnelin kisisel farkindaligi fazla oldugu icin cevaplar kisiler arasinda fazla degiskenlik gosterebilir bu yuzden korelasyon bulmakta problem olabilecegini dusunuyorum,4,1,Male,Turkce,Chrome,Windows,900,1440,7.23975,
900,condition1,bearded,sakallı,man_old_bearded,man,[0.34],6993,33,,[],25,Yes,oznel ve nesnelin kisisel farkindaligi fazla oldugu icin cevaplar kisiler arasinda fazla degiskenlik gosterebilir bu yuzden korelasyon bulmakta problem olabilecegini dusunuyorum,4,1,Male,Turkce,Chrome,Windows,900,1440,7.23975,
900,condition1,triangular,üçgen,earring_big_triangular,earring,[0],1352,34,,[],25,Yes,oznel ve nesnelin kisisel farkindaligi fazla oldugu icin cevaplar kisiler arasinda fazla degiskenlik gosterebilir bu yuzden korelasyon bulmakta problem olabilecegini dusunuyorum,4,1,Male,Turkce,Chrome,Windows,900,1440,7.23975,
900,condition1,red,kırmızı,frog_spotted_red,frog,[0.28],2118,35,,[],25,Yes,oznel ve nesnelin kisisel farkindaligi fazla oldugu icin cevaplar kisiler arasinda fazla degiskenlik gosterebilir bu yuzden korelasyon bulmakta problem olabilecegini dusunuyorum,4,1,Male,Turkce,Chrome,Windows,900,1440,7.23975,
900,condition1,glossy,parlak,nails_black_glossy,nails,[0.72],3176,36,,[],25,Yes,oznel ve nesnelin kisisel farkindaligi fazla oldugu icin cevaplar kisiler arasinda fazla degiskenlik gosterebilir bu yuzden korelasyon bulmakta problem olabilecegini dusunuyorum,4,1,Male,Turkce,Chrome,Windows,900,1440,7.23975,
900,condition1,black and white,siyah beyaz,picture_bw_rectangular,picture,[0],1875,37,,[],25,Yes,oznel ve nesnelin kisisel farkindaligi fazla oldugu icin cevaplar kisiler arasinda fazla degiskenlik gosterebilir bu yuzden korelasyon bulmakta problem olabilecegini dusunuyorum,4,1,Male,Turkce,Chrome,Windows,900,1440,7.23975,
900,condition1,blond,sarı,hair_curly_blonde,hair,[0.29],2223,38,,[],25,Yes,oznel ve nesnelin kisisel farkindaligi fazla oldugu icin cevaplar kisiler arasinda fazla degiskenlik gosterebilir bu yuzden korelasyon bulmakta problem olabilecegini dusunuyorum,4,1,Male,Turkce,Chrome,Windows,900,1440,7.23975,
900,condition1,sad,mutsuz,woman_old_sad,woman,[1],1792,39,,[],25,Yes,oznel ve nesnelin kisisel farkindaligi fazla oldugu icin cevaplar kisiler arasinda fazla degiskenlik gosterebilir bu yuzden korelasyon bulmakta problem olabilecegini dusunuyorum,4,1,Male,Turkce,Chrome,Windows,900,1440,7.23975,
900,condition1,spotted,benekli,frog_spotted_green,frog,[0.17],1710,40,,[],25,Yes,oznel ve nesnelin kisisel farkindaligi fazla oldugu icin cevaplar kisiler arasinda fazla degiskenlik gosterebilir bu yuzden korelasyon bulmakta problem olabilecegini dusunuyorum,4,1,Male,Turkce,Chrome,Windows,900,1440,7.23975,
900,condition1,open,açık,box_open_cardboard,box,[0.19],2359,41,,[],25,Yes,oznel ve nesnelin kisisel farkindaligi fazla oldugu icin cevaplar kisiler arasinda fazla degiskenlik gosterebilir bu yuzden korelasyon bulmakta problem olabilecegini dusunuyorum,4,1,Male,Turkce,Chrome,Windows,900,1440,7.23975,
900,condition1,matte,mat,nails_black_matte,nails,[0.32],1721,42,,[],25,Yes,oznel ve nesnelin kisisel farkindaligi fazla oldugu icin cevaplar kisiler arasinda fazla degiskenlik gosterebilir bu yuzden korelasyon bulmakta problem olabilecegini dusunuyorum,4,1,Male,Turkce,Chrome,Windows,900,1440,7.23975,
900,condition1,glasses-wearing,gözlüklü,man2_bearded_glassed,man,[0],1878,43,,[],25,Yes,oznel ve nesnelin kisisel farkindaligi fazla oldugu icin cevaplar kisiler arasinda fazla degiskenlik gosterebilir bu yuzden korelasyon bulmakta problem olabilecegini dusunuyorum,4,1,Male,Turkce,Chrome,Windows,900,1440,7.23975,
900,condition1,dirty,kirli,spoon_metal_dirty,spoon,[0.75],1633,44,,[],25,Yes,oznel ve nesnelin kisisel farkindaligi fazla oldugu icin cevaplar kisiler arasinda fazla degiskenlik gosterebilir bu yuzden korelasyon bulmakta problem olabilecegini dusunuyorum,4,1,Male,Turkce,Chrome,Windows,900,1440,7.23975,
900,condition1,closed,kapalı,box_closed_cardboard,box,[0.11],3479,45,,[],25,Yes,oznel ve nesnelin kisisel farkindaligi fazla oldugu icin cevaplar kisiler arasinda fazla degiskenlik gosterebilir bu yuzden korelasyon bulmakta problem olabilecegini dusunuyorum,4,1,Male,Turkce,Chrome,Windows,900,1440,7.23975,
900,condition1,metal,metal,spoon_metal_clean,spoon,[0.15],1696,46,,[],25,Yes,oznel ve nesnelin kisisel farkindaligi fazla oldugu icin cevaplar kisiler arasinda fazla degiskenlik gosterebilir bu yuzden korelasyon bulmakta problem olabilecegini dusunuyorum,4,1,Male,Turkce,Chrome,Windows,900,1440,7.23975,
900,condition1,high,yüksek,table_metal_high,table,[0.27],14113,47,,[],25,Yes,oznel ve nesnelin kisisel farkindaligi fazla oldugu icin cevaplar kisiler arasinda fazla degiskenlik gosterebilir bu yuzden korelasyon bulmakta problem olabilecegini dusunuyorum,4,1,Male,Turkce,Chrome,Windows,900,1440,7.23975,
900,condition1,low,alçak,table_metal_low,table,[0.68],5168,48,,[],25,Yes,oznel ve nesnelin kisisel farkindaligi fazla oldugu icin cevaplar kisiler arasinda fazla degiskenlik gosterebilir bu yuzden korelasyon bulmakta problem olabilecegini dusunuyorum,4,1,Male,Turkce,Chrome,Windows,900,1440,7.23975,
947,condition1,,,,beyaz,beyaz,0,1,bot_check,[],34,Yes,good luck,4,1,Female,Turkce,Chrome,Windows,864,1536,3.599283333333333,
947,condition1,black,siyah,nails_black_glossy,nails,[0],4302,3,,[],34,Yes,good luck,4,1,Female,Turkce,Chrome,Windows,864,1536,3.599283333333333,
947,condition1,skinny,zayıf,woman2_happy_skinny,woman,[0.31],12985,4,,[],34,Yes,good luck,4,1,Female,Turkce,Chrome,Windows,864,1536,3.599283333333333,
947,condition1,glass,cam,bottle_glass_big,bottle,[0],3167,5,,[],34,Yes,good luck,4,1,Female,Turkce,Chrome,Windows,864,1536,3.599283333333333,
947,condition1,triangular,üçgen,earring_big_triangular,earring,[0.01],2456,6,,[],34,Yes,good luck,4,1,Female,Turkce,Chrome,Windows,864,1536,3.599283333333333,
947,condition1,fat,şişman,woman2_happy_fat,woman,[0.33],2582,7,,[],34,Yes,good luck,4,1,Female,Turkce,Chrome,Windows,864,1536,3.599283333333333,
947,condition1,clean,temiz,spoon_metal_clean,spoon,[0.55],4793,8,,[],34,Yes,good luck,4,1,Female,Turkce,Chrome,Windows,864,1536,3.599283333333333,
947,condition1,blue,mavi,pencil_long_blue,pencil,[0.01],2989,9,,[],34,Yes,good luck,4,1,Female,Turkce,Chrome,Windows,864,1536,3.599283333333333,
947,condition1,open,açık,box_open_cardboard,box,[0],2566,10,,[],34,Yes,good luck,4,1,Female,Turkce,Chrome,Windows,864,1536,3.599283333333333,
947,condition1,long,uzun,pencil_long_black,pencil,[0.64],5219,11,,[],34,Yes,good luck,4,1,Female,Turkce,Chrome,Windows,864,1536,3.599283333333333,
947,condition1,dirty,kirli,spoon_metal_dirty,spoon,[0.36],2522,12,,[],34,Yes,good luck,4,1,Female,Turkce,Chrome,Windows,864,1536,3.599283333333333,
947,condition1,sad,mutsuz,woman_old_sad,woman,[0.88],2624,13,,[],34,Yes,good luck,4,1,Female,Turkce,Chrome,Windows,864,1536,3.599283333333333,
947,condition1,curly,kıvırcık,hair_curly_blonde,hair,[0.11],4886,14,,[],34,Yes,good luck,4,1,Female,Turkce,Chrome,Windows,864,1536,3.599283333333333,
947,condition1,mustache-touting,bıyıklı,man2_mustached_glassed,man,[0.02],3184,15,,[],34,Yes,good luck,4,1,Female,Turkce,Chrome,Windows,864,1536,3.599283333333333,
947,condition1,metal,metal,spoon_metal_clean,spoon,[0.01],4878,16,,[],34,Yes,good luck,4,1,Female,Turkce,Chrome,Windows,864,1536,3.599283333333333,
947,condition1,small,küçük,bottle_glass_small,bottle,[0.58],3970,17,,[],34,Yes,good luck,4,1,Female,Turkce,Chrome,Windows,864,1536,3.599283333333333,
947,condition1,closed,kapalı,box_closed_cardboard,box,[0.01],6215,18,,[],34,Yes,good luck,4,1,Female,Turkce,Chrome,Windows,864,1536,3.599283333333333,
947,condition1,green,yeşil,frog_spotted_green,frog,[0.01],2414,19,,[],34,Yes,good luck,4,1,Female,Turkce,Chrome,Windows,864,1536,3.599283333333333,
947,condition1,wet,ıslak,shorts_wet_green,shorts,[0.14],2930,20,,[],34,Yes,good luck,4,1,Female,Turkce,Chrome,Windows,864,1536,3.599283333333333,
947,condition1,colored,renkli,picture_colored_rectangular,picture,[0.35],5913,21,,[],34,Yes,good luck,4,1,Female,Turkce,Chrome,Windows,864,1536,3.599283333333333,
947,condition1,old,yaşlı,man_old_bearded,man,[0.68],5331,22,,[],34,Yes,good luck,4,1,Female,Turkce,Chrome,Windows,864,1536,3.599283333333333,
947,condition1,clean-shaven,sakalsız,man_old_cleanshaven,man,[0.04],2473,23,,[],34,Yes,good luck,4,1,Female,Turkce,Chrome,Windows,864,1536,3.599283333333333,
947,condition1,blond,sarı,hair_curly_blonde,hair,[0.06],3581,24,,[],34,Yes,good luck,4,1,Female,Turkce,Chrome,Windows,864,1536,3.599283333333333,
947,condition1,plastic,plastik,bottle_plastic_big,bottle,[0.01],3788,25,,[],34,Yes,good luck,4,1,Female,Turkce,Chrome,Windows,864,1536,3.599283333333333,
947,condition1,young,genç,man_young_bearded,man,[0.7],4268,26,,[],34,Yes,good luck,4,1,Female,Turkce,Chrome,Windows,864,1536,3.599283333333333,
947,condition1,high,yüksek,table_metal_high,table,[0.62],5128,27,,[],34,Yes,good luck,4,1,Female,Turkce,Chrome,Windows,864,1536,3.599283333333333,
947,condition1,wooden,tahta,spoon_wooden_clean,spoon,[0.01],3196,28,,[],34,Yes,good luck,4,1,Female,Turkce,Chrome,Windows,864,1536,3.599283333333333,
947,condition1,dry,kuru,shorts_dry_green,shorts,[0.04],2890,29,,[],34,Yes,good luck,4,1,Female,Turkce,Chrome,Windows,864,1536,3.599283333333333,
947,condition1,rectangular,dikdörtgen,picture_bw_rectangular,picture,[0],2220,30,,[],34,Yes,good luck,4,1,Female,Turkce,Chrome,Windows,864,1536,3.599283333333333,
947,condition1,matte,mat,nails_black_matte,nails,[0.62],3234,31,,[],34,Yes,good luck,4,1,Female,Turkce,Chrome,Windows,864,1536,3.599283333333333,
947,condition1,spotted,benekli,frog_spotted_green,frog,[0],4476,32,,[],34,Yes,good luck,4,1,Female,Turkce,Chrome,Windows,864,1536,3.599283333333333,
947,condition1,square,kare,picture_bw_square,picture,[0.03],1870,33,,[],34,Yes,good luck,4,1,Female,Turkce,Chrome,Windows,864,1536,3.599283333333333,
947,condition1,happy,mutlu,woman_old_happy,woman,[1],4586,34,,[],34,Yes,good luck,4,1,Female,Turkce,Chrome,Windows,864,1536,3.599283333333333,
947,condition1,straight,düz,hair_straight_blond,hair,[0.01],3071,35,,[],34,Yes,good luck,4,1,Female,Turkce,Chrome,Windows,864,1536,3.599283333333333,
947,condition1,glossy,parlak,nails_black_glossy,nails,[0.03],3130,36,,[],34,Yes,good luck,4,1,Female,Turkce,Chrome,Windows,864,1536,3.599283333333333,
947,condition1,big,büyük,bottle_glass_big,bottle,[0.6],4656,37,,[],34,Yes,good luck,4,1,Female,Turkce,Chrome,Windows,864,1536,3.599283333333333,
947,condition1,glasses-wearing,gözlüklü,man2_bearded_glassed,man,[0],2420,38,,[],34,Yes,good luck,4,1,Female,Turkce,Chrome,Windows,864,1536,3.599283333333333,
947,condition1,cardboard,karton,box_closed_cardboard,box,[0],2056,39,,[],34,Yes,good luck,4,1,Female,Turkce,Chrome,Windows,864,1536,3.599283333333333,
947,condition1,black and white,siyah beyaz,picture_bw_rectangular,picture,[0.03],2439,40,,[],34,Yes,good luck,4,1,Female,Turkce,Chrome,Windows,864,1536,3.599283333333333,
947,condition1,round,yuvarlak,earring_big_round,earring,[0],3788,41,,[],34,Yes,good luck,4,1,Female,Turkce,Chrome,Windows,864,1536,3.599283333333333,
947,condition1,short,kısa,pencil_short_black,pencil,[0.68],2822,42,,[],34,Yes,good luck,4,1,Female,Turkce,Chrome,Windows,864,1536,3.599283333333333,
947,condition1,striped,çizgili,frog_striped_green,frog,[0.01],2627,43,,[],34,Yes,good luck,4,1,Female,Turkce,Chrome,Windows,864,1536,3.599283333333333,
947,condition1,red,kırmızı,frog_spotted_red,frog,[0.01],2070,44,,[],34,Yes,good luck,4,1,Female,Turkce,Chrome,Windows,864,1536,3.599283333333333,
947,condition1,low,alçak,table_metal_low,table,[0.05],2034,45,,[],34,Yes,good luck,4,1,Female,Turkce,Chrome,Windows,864,1536,3.599283333333333,
947,condition1,bearded,sakallı,man_old_bearded,man,[0.03],3206,46,,[],34,Yes,good luck,4,1,Female,Turkce,Chrome,Windows,864,1536,3.599283333333333,
947,condition1,hat-wearing,şapkalı,man2_bearded_hatted,man,[0.02],1992,47,,[],34,Yes,good luck,4,1,Female,Turkce,Chrome,Windows,864,1536,3.599283333333333,
947,condition1,brown,kahverengi,hair_curly_brown,hair,[0],2088,48,,[],34,Yes,good luck,4,1,Female,Turkce,Chrome,Windows,864,1536,3.599283333333333,
823,condition1,,,,beyaz,beyaz,0,1,bot_check,[],,Yes,,3,1,Female,türkçe,Chrome,Windows,864,1536,2.8936,
823,condition1,mustache-touting,bıyıklı,man2_mustached_glassed,man,[0],7125,3,,[],,Yes,,3,1,Female,türkçe,Chrome,Windows,864,1536,2.8936,
823,condition1,hat-wearing,şapkalı,man2_bearded_hatted,man,[0],2079,4,,[],,Yes,,3,1,Female,türkçe,Chrome,Windows,864,1536,2.8936,
823,condition1,fat,şişman,woman2_happy_fat,woman,[0.64],12923,5,,[],,Yes,,3,1,Female,türkçe,Chrome,Windows,864,1536,2.8936,
823,condition1,happy,mutlu,woman_old_happy,woman,[0.77],2470,6,,[],,Yes,,3,1,Female,türkçe,Chrome,Windows,864,1536,2.8936,
823,condition1,sad,mutsuz,woman_old_sad,woman,[0.78],2356,7,,[],,Yes,,3,1,Female,türkçe,Chrome,Windows,864,1536,2.8936,
823,condition1,young,genç,man_young_bearded,man,[0.01],2229,8,,[],,Yes,,3,1,Female,türkçe,Chrome,Windows,864,1536,2.8936,
823,condition1,dry,kuru,shorts_dry_green,shorts,[0.01],2160,9,,[],,Yes,,3,1,Female,türkçe,Chrome,Windows,864,1536,2.8936,
823,condition1,striped,çizgili,frog_striped_green,frog,[0.03],1916,10,,[],,Yes,,3,1,Female,türkçe,Chrome,Windows,864,1536,2.8936,
823,condition1,wet,ıslak,shorts_wet_green,shorts,[0.02],2379,11,,[],,Yes,,3,1,Female,türkçe,Chrome,Windows,864,1536,2.8936,
823,condition1,low,alçak,table_metal_low,table,[0.03],2083,12,,[],,Yes,,3,1,Female,türkçe,Chrome,Windows,864,1536,2.8936,
823,condition1,blue,mavi,pencil_long_blue,pencil,[0],1968,13,,[],,Yes,,3,1,Female,türkçe,Chrome,Windows,864,1536,2.8936,
823,condition1,glossy,parlak,nails_black_glossy,nails,[0.14],3861,14,,[],,Yes,,3,1,Female,türkçe,Chrome,Windows,864,1536,2.8936,
823,condition1,blond,sarı,hair_curly_blonde,hair,[0.01],2062,15,,[],,Yes,,3,1,Female,türkçe,Chrome,Windows,864,1536,2.8936,
823,condition1,straight,düz,hair_straight_blond,hair,[0.03],2099,16,,[],,Yes,,3,1,Female,türkçe,Chrome,Windows,864,1536,2.8936,
823,condition1,open,açık,box_open_cardboard,box,[0.02],2197,17,,[],,Yes,,3,1,Female,türkçe,Chrome,Windows,864,1536,2.8936,
823,condition1,bearded,sakallı,man_old_bearded,man,[0.01],1888,18,,[],,Yes,,3,1,Female,türkçe,Chrome,Windows,864,1536,2.8936,
823,condition1,rectangular,dikdörtgen,picture_bw_rectangular,picture,[0.01],1996,19,,[],,Yes,,3,1,Female,türkçe,Chrome,Windows,864,1536,2.8936,
823,condition1,spotted,benekli,frog_spotted_green,frog,[0.03],1806,20,,[],,Yes,,3,1,Female,türkçe,Chrome,Windows,864,1536,2.8936,
823,condition1,brown,kahverengi,hair_curly_brown,hair,[0.03],1962,21,,[],,Yes,,3,1,Female,türkçe,Chrome,Windows,864,1536,2.8936,
823,condition1,glasses-wearing,gözlüklü,man2_bearded_glassed,man,[0.01],1866,22,,[],,Yes,,3,1,Female,türkçe,Chrome,Windows,864,1536,2.8936,
823,condition1,old,yaşlı,man_old_bearded,man,[0.48],7032,23,,[],,Yes,,3,1,Female,türkçe,Chrome,Windows,864,1536,2.8936,
823,condition1,big,büyük,bottle_glass_big,bottle,[0.17],3330,24,,[],,Yes,,3,1,Female,türkçe,Chrome,Windows,864,1536,2.8936,
823,condition1,glass,cam,bottle_glass_big,bottle,[0.02],2037,25,,[],,Yes,,3,1,Female,türkçe,Chrome,Windows,864,1536,2.8936,
823,condition1,long,uzun,pencil_long_black,pencil,[0.55],2957,26,,[],,Yes,,3,1,Female,türkçe,Chrome,Windows,864,1536,2.8936,
823,condition1,skinny,zayıf,woman2_happy_skinny,woman,[0.72],3366,27,,[],,Yes,,3,1,Female,türkçe,Chrome,Windows,864,1536,2.8936,
823,condition1,triangular,üçgen,earring_big_triangular,earring,[0.03],2084,28,,[],,Yes,,3,1,Female,türkçe,Chrome,Windows,864,1536,2.8936,
823,condition1,metal,metal,spoon_metal_clean,spoon,[0.02],1882,29,,[],,Yes,,3,1,Female,türkçe,Chrome,Windows,864,1536,2.8936,
823,condition1,high,yüksek,table_metal_high,table,[0.5],2082,30,,[],,Yes,,3,1,Female,türkçe,Chrome,Windows,864,1536,2.8936,
823,condition1,clean,temiz,spoon_metal_clean,spoon,[0.79],3439,31,,[],,Yes,,3,1,Female,türkçe,Chrome,Windows,864,1536,2.8936,
823,condition1,square,kare,picture_bw_square,picture,[0.01],1967,32,,[],,Yes,,3,1,Female,türkçe,Chrome,Windows,864,1536,2.8936,
823,condition1,red,kırmızı,frog_spotted_red,frog,[0.02],1659,33,,[],,Yes,,3,1,Female,türkçe,Chrome,Windows,864,1536,2.8936,
823,condition1,curly,kıvırcık,hair_curly_blonde,hair,[0.12],2896,34,,[],,Yes,,3,1,Female,türkçe,Chrome,Windows,864,1536,2.8936,
823,condition1,clean-shaven,sakalsız,man_old_cleanshaven,man,[0.01],1784,35,,[],,Yes,,3,1,Female,türkçe,Chrome,Windows,864,1536,2.8936,
823,condition1,plastic,plastik,bottle_plastic_big,bottle,[0.02],2080,36,,[],,Yes,,3,1,Female,türkçe,Chrome,Windows,864,1536,2.8936,
823,condition1,black and white,siyah beyaz,picture_bw_rectangular,picture,[0.01],2087,37,,[],,Yes,,3,1,Female,türkçe,Chrome,Windows,864,1536,2.8936,
823,condition1,closed,kapalı,box_closed_cardboard,box,[0.03],1918,38,,[],,Yes,,3,1,Female,türkçe,Chrome,Windows,864,1536,2.8936,
823,condition1,cardboard,karton,box_closed_cardboard,box,[0.02],1657,39,,[],,Yes,,3,1,Female,türkçe,Chrome,Windows,864,1536,2.8936,
823,condition1,colored,renkli,picture_colored_rectangular,picture,[0.2],4087,40,,[],,Yes,,3,1,Female,türkçe,Chrome,Windows,864,1536,2.8936,
823,condition1,wooden,tahta,spoon_wooden_clean,spoon,[0.01],2067,41,,[],,Yes,,3,1,Female,türkçe,Chrome,Windows,864,1536,2.8936,
823,condition1,short,kısa,pencil_short_black,pencil,[0.61],2459,42,,[],,Yes,,3,1,Female,türkçe,Chrome,Windows,864,1536,2.8936,
823,condition1,small,küçük,bottle_glass_small,bottle,[0.56],2280,43,,[],,Yes,,3,1,Female,türkçe,Chrome,Windows,864,1536,2.8936,
823,condition1,green,yeşil,frog_spotted_green,frog,[0.01],2243,44,,[],,Yes,,3,1,Female,türkçe,Chrome,Windows,864,1536,2.8936,
823,condition1,matte,mat,nails_black_matte,nails,[0.16],2957,45,,[],,Yes,,3,1,Female,türkçe,Chrome,Windows,864,1536,2.8936,
823,condition1,round,yuvarlak,earring_big_round,earring,[0.18],2560,46,,[],,Yes,,3,1,Female,türkçe,Chrome,Windows,864,1536,2.8936,
823,condition1,black,siyah,nails_black_glossy,nails,[0.01],1772,47,,[],,Yes,,3,1,Female,türkçe,Chrome,Windows,864,1536,2.8936,
823,condition1,dirty,kirli,spoon_metal_dirty,spoon,[0.59],2239,48,,[],,Yes,,3,1,Female,türkçe,Chrome,Windows,864,1536,2.8936,
893,condition1,,,,beyaz,BEYAZ,0,1,bot_check,[],38,Yes,Açıklamalar daha ayrıntılı olabilirdi. Örneklerle bir yönlendirme olmadan deneye katılanlara destek verilebilirdi.,4,1,Male,TÜRKÇE,Chrome,Windows,768,1366,5.770716666666667,
893,condition1,blond,sarı,hair_curly_blonde,hair,[0.48],7578,3,,[],38,Yes,Açıklamalar daha ayrıntılı olabilirdi. Örneklerle bir yönlendirme olmadan deneye katılanlara destek verilebilirdi.,4,1,Male,TÜRKÇE,Chrome,Windows,768,1366,5.770716666666667,
893,condition1,curly,kıvırcık,hair_curly_blonde,hair,[0.56],5203,4,,[],38,Yes,Açıklamalar daha ayrıntılı olabilirdi. Örneklerle bir yönlendirme olmadan deneye katılanlara destek verilebilirdi.,4,1,Male,TÜRKÇE,Chrome,Windows,768,1366,5.770716666666667,
893,condition1,bearded,sakallı,man_old_bearded,man,[0.89],11825,5,,[],38,Yes,Açıklamalar daha ayrıntılı olabilirdi. Örneklerle bir yönlendirme olmadan deneye katılanlara destek verilebilirdi.,4,1,Male,TÜRKÇE,Chrome,Windows,768,1366,5.770716666666667,
893,condition1,glass,cam,bottle_glass_big,bottle,[0.11],5569,6,,[],38,Yes,Açıklamalar daha ayrıntılı olabilirdi. Örneklerle bir yönlendirme olmadan deneye katılanlara destek verilebilirdi.,4,1,Male,TÜRKÇE,Chrome,Windows,768,1366,5.770716666666667,
893,condition1,small,küçük,bottle_glass_small,bottle,[0.47],3552,7,,[],38,Yes,Açıklamalar daha ayrıntılı olabilirdi. Örneklerle bir yönlendirme olmadan deneye katılanlara destek verilebilirdi.,4,1,Male,TÜRKÇE,Chrome,Windows,768,1366,5.770716666666667,
893,condition1,long,uzun,pencil_long_black,pencil,[0.68],15488,8,,[],38,Yes,Açıklamalar daha ayrıntılı olabilirdi. Örneklerle bir yönlendirme olmadan deneye katılanlara destek verilebilirdi.,4,1,Male,TÜRKÇE,Chrome,Windows,768,1366,5.770716666666667,
893,condition1,black,siyah,nails_black_glossy,nails,[0.26],4025,9,,[],38,Yes,Açıklamalar daha ayrıntılı olabilirdi. Örneklerle bir yönlendirme olmadan deneye katılanlara destek verilebilirdi.,4,1,Male,TÜRKÇE,Chrome,Windows,768,1366,5.770716666666667,
893,condition1,happy,mutlu,woman_old_happy,woman,[1],8952,10,,[],38,Yes,Açıklamalar daha ayrıntılı olabilirdi. Örneklerle bir yönlendirme olmadan deneye katılanlara destek verilebilirdi.,4,1,Male,TÜRKÇE,Chrome,Windows,768,1366,5.770716666666667,
893,condition1,square,kare,picture_bw_square,picture,[0],5014,11,,[],38,Yes,Açıklamalar daha ayrıntılı olabilirdi. Örneklerle bir yönlendirme olmadan deneye katılanlara destek verilebilirdi.,4,1,Male,TÜRKÇE,Chrome,Windows,768,1366,5.770716666666667,
893,condition1,cardboard,karton,box_closed_cardboard,box,[0.02],4703,12,,[],38,Yes,Açıklamalar daha ayrıntılı olabilirdi. Örneklerle bir yönlendirme olmadan deneye katılanlara destek verilebilirdi.,4,1,Male,TÜRKÇE,Chrome,Windows,768,1366,5.770716666666667,
893,condition1,brown,kahverengi,hair_curly_brown,hair,[0.53],3560,13,,[],38,Yes,Açıklamalar daha ayrıntılı olabilirdi. Örneklerle bir yönlendirme olmadan deneye katılanlara destek verilebilirdi.,4,1,Male,TÜRKÇE,Chrome,Windows,768,1366,5.770716666666667,
893,condition1,clean,temiz,spoon_metal_clean,spoon,[0.7],8888,14,,[],38,Yes,Açıklamalar daha ayrıntılı olabilirdi. Örneklerle bir yönlendirme olmadan deneye katılanlara destek verilebilirdi.,4,1,Male,TÜRKÇE,Chrome,Windows,768,1366,5.770716666666667,
893,condition1,high,yüksek,table_metal_high,table,[0.26],4557,15,,[],38,Yes,Açıklamalar daha ayrıntılı olabilirdi. Örneklerle bir yönlendirme olmadan deneye katılanlara destek verilebilirdi.,4,1,Male,TÜRKÇE,Chrome,Windows,768,1366,5.770716666666667,
893,condition1,black and white,siyah beyaz,picture_bw_rectangular,picture,[0.23],5103,16,,[],38,Yes,Açıklamalar daha ayrıntılı olabilirdi. Örneklerle bir yönlendirme olmadan deneye katılanlara destek verilebilirdi.,4,1,Male,TÜRKÇE,Chrome,Windows,768,1366,5.770716666666667,
893,condition1,clean-shaven,sakalsız,man_old_cleanshaven,man,[1],5385,17,,[],38,Yes,Açıklamalar daha ayrıntılı olabilirdi. Örneklerle bir yönlendirme olmadan deneye katılanlara destek verilebilirdi.,4,1,Male,TÜRKÇE,Chrome,Windows,768,1366,5.770716666666667,
893,condition1,spotted,benekli,frog_spotted_green,frog,[0.97],4119,18,,[],38,Yes,Açıklamalar daha ayrıntılı olabilirdi. Örneklerle bir yönlendirme olmadan deneye katılanlara destek verilebilirdi.,4,1,Male,TÜRKÇE,Chrome,Windows,768,1366,5.770716666666667,
893,condition1,closed,kapalı,box_closed_cardboard,box,[0.49],3516,19,,[],38,Yes,Açıklamalar daha ayrıntılı olabilirdi. Örneklerle bir yönlendirme olmadan deneye katılanlara destek verilebilirdi.,4,1,Male,TÜRKÇE,Chrome,Windows,768,1366,5.770716666666667,
893,condition1,striped,çizgili,frog_striped_green,frog,[0.15],6893,20,,[],38,Yes,Açıklamalar daha ayrıntılı olabilirdi. Örneklerle bir yönlendirme olmadan deneye katılanlara destek verilebilirdi.,4,1,Male,TÜRKÇE,Chrome,Windows,768,1366,5.770716666666667,
893,condition1,open,açık,box_open_cardboard,box,[0.5],3379,21,,[],38,Yes,Açıklamalar daha ayrıntılı olabilirdi. Örneklerle bir yönlendirme olmadan deneye katılanlara destek verilebilirdi.,4,1,Male,TÜRKÇE,Chrome,Windows,768,1366,5.770716666666667,
893,condition1,dirty,kirli,spoon_metal_dirty,spoon,[0.57],4276,22,,[],38,Yes,Açıklamalar daha ayrıntılı olabilirdi. Örneklerle bir yönlendirme olmadan deneye katılanlara destek verilebilirdi.,4,1,Male,TÜRKÇE,Chrome,Windows,768,1366,5.770716666666667,
893,condition1,triangular,üçgen,earring_big_triangular,earring,[0.07],5558,23,,[],38,Yes,Açıklamalar daha ayrıntılı olabilirdi. Örneklerle bir yönlendirme olmadan deneye katılanlara destek verilebilirdi.,4,1,Male,TÜRKÇE,Chrome,Windows,768,1366,5.770716666666667,
893,condition1,round,yuvarlak,earring_big_round,earring,[0.21],4707,24,,[],38,Yes,Açıklamalar daha ayrıntılı olabilirdi. Örneklerle bir yönlendirme olmadan deneye katılanlara destek verilebilirdi.,4,1,Male,TÜRKÇE,Chrome,Windows,768,1366,5.770716666666667,
893,condition1,fat,şişman,woman2_happy_fat,woman,[0.99],5094,25,,[],38,Yes,Açıklamalar daha ayrıntılı olabilirdi. Örneklerle bir yönlendirme olmadan deneye katılanlara destek verilebilirdi.,4,1,Male,TÜRKÇE,Chrome,Windows,768,1366,5.770716666666667,
893,condition1,green,yeşil,frog_spotted_green,frog,[0.49],2725,26,,[],38,Yes,Açıklamalar daha ayrıntılı olabilirdi. Örneklerle bir yönlendirme olmadan deneye katılanlara destek verilebilirdi.,4,1,Male,TÜRKÇE,Chrome,Windows,768,1366,5.770716666666667,
893,condition1,skinny,zayıf,woman2_happy_skinny,woman,[1],5002,27,,[],38,Yes,Açıklamalar daha ayrıntılı olabilirdi. Örneklerle bir yönlendirme olmadan deneye katılanlara destek verilebilirdi.,4,1,Male,TÜRKÇE,Chrome,Windows,768,1366,5.770716666666667,
893,condition1,dry,kuru,shorts_dry_green,shorts,[0.18],5021,28,,[],38,Yes,Açıklamalar daha ayrıntılı olabilirdi. Örneklerle bir yönlendirme olmadan deneye katılanlara destek verilebilirdi.,4,1,Male,TÜRKÇE,Chrome,Windows,768,1366,5.770716666666667,
893,condition1,rectangular,dikdörtgen,picture_bw_rectangular,picture,[0],3285,29,,[],38,Yes,Açıklamalar daha ayrıntılı olabilirdi. Örneklerle bir yönlendirme olmadan deneye katılanlara destek verilebilirdi.,4,1,Male,TÜRKÇE,Chrome,Windows,768,1366,5.770716666666667,
893,condition1,straight,düz,hair_straight_blond,hair,[0],4012,30,,[],38,Yes,Açıklamalar daha ayrıntılı olabilirdi. Örneklerle bir yönlendirme olmadan deneye katılanlara destek verilebilirdi.,4,1,Male,TÜRKÇE,Chrome,Windows,768,1366,5.770716666666667,
893,condition1,red,kırmızı,frog_spotted_red,frog,[0.17],4255,31,,[],38,Yes,Açıklamalar daha ayrıntılı olabilirdi. Örneklerle bir yönlendirme olmadan deneye katılanlara destek verilebilirdi.,4,1,Male,TÜRKÇE,Chrome,Windows,768,1366,5.770716666666667,
893,condition1,low,alçak,table_metal_low,table,[0.23],4913,32,,[],38,Yes,Açıklamalar daha ayrıntılı olabilirdi. Örneklerle bir yönlendirme olmadan deneye katılanlara destek verilebilirdi.,4,1,Male,TÜRKÇE,Chrome,Windows,768,1366,5.770716666666667,
893,condition1,matte,mat,nails_black_matte,nails,[0.1],3525,33,,[],38,Yes,Açıklamalar daha ayrıntılı olabilirdi. Örneklerle bir yönlendirme olmadan deneye katılanlara destek verilebilirdi.,4,1,Male,TÜRKÇE,Chrome,Windows,768,1366,5.770716666666667,
893,condition1,metal,metal,spoon_metal_clean,spoon,[0],5049,34,,[],38,Yes,Açıklamalar daha ayrıntılı olabilirdi. Örneklerle bir yönlendirme olmadan deneye katılanlara destek verilebilirdi.,4,1,Male,TÜRKÇE,Chrome,Windows,768,1366,5.770716666666667,
893,condition1,mustache-touting,bıyıklı,man2_mustached_glassed,man,[1],2973,35,,[],38,Yes,Açıklamalar daha ayrıntılı olabilirdi. Örneklerle bir yönlendirme olmadan deneye katılanlara destek verilebilirdi.,4,1,Male,TÜRKÇE,Chrome,Windows,768,1366,5.770716666666667,
893,condition1,plastic,plastik,bottle_plastic_big,bottle,[0.49],9172,36,,[],38,Yes,Açıklamalar daha ayrıntılı olabilirdi. Örneklerle bir yönlendirme olmadan deneye katılanlara destek verilebilirdi.,4,1,Male,TÜRKÇE,Chrome,Windows,768,1366,5.770716666666667,
893,condition1,glasses-wearing,gözlüklü,man2_bearded_glassed,man,[1],4943,37,,[],38,Yes,Açıklamalar daha ayrıntılı olabilirdi. Örneklerle bir yönlendirme olmadan deneye katılanlara destek verilebilirdi.,4,1,Male,TÜRKÇE,Chrome,Windows,768,1366,5.770716666666667,
893,condition1,colored,renkli,picture_colored_rectangular,picture,[0.33],2998,38,,[],38,Yes,Açıklamalar daha ayrıntılı olabilirdi. Örneklerle bir yönlendirme olmadan deneye katılanlara destek verilebilirdi.,4,1,Male,TÜRKÇE,Chrome,Windows,768,1366,5.770716666666667,
893,condition1,wooden,tahta,spoon_wooden_clean,spoon,[0.3],4525,39,,[],38,Yes,Açıklamalar daha ayrıntılı olabilirdi. Örneklerle bir yönlendirme olmadan deneye katılanlara destek verilebilirdi.,4,1,Male,TÜRKÇE,Chrome,Windows,768,1366,5.770716666666667,
893,condition1,glossy,parlak,nails_black_glossy,nails,[0.24],3692,40,,[],38,Yes,Açıklamalar daha ayrıntılı olabilirdi. Örneklerle bir yönlendirme olmadan deneye katılanlara destek verilebilirdi.,4,1,Male,TÜRKÇE,Chrome,Windows,768,1366,5.770716666666667,
893,condition1,blue,mavi,pencil_long_blue,pencil,[0.1],2924,41,,[],38,Yes,Açıklamalar daha ayrıntılı olabilirdi. Örneklerle bir yönlendirme olmadan deneye katılanlara destek verilebilirdi.,4,1,Male,TÜRKÇE,Chrome,Windows,768,1366,5.770716666666667,
893,condition1,old,yaşlı,man_old_bearded,man,[0.98],4801,42,,[],38,Yes,Açıklamalar daha ayrıntılı olabilirdi. Örneklerle bir yönlendirme olmadan deneye katılanlara destek verilebilirdi.,4,1,Male,TÜRKÇE,Chrome,Windows,768,1366,5.770716666666667,
893,condition1,young,genç,man_young_bearded,man,[1],7913,43,,[],38,Yes,Açıklamalar daha ayrıntılı olabilirdi. Örneklerle bir yönlendirme olmadan deneye katılanlara destek verilebilirdi.,4,1,Male,TÜRKÇE,Chrome,Windows,768,1366,5.770716666666667,
893,condition1,big,büyük,bottle_glass_big,bottle,[0.16],3533,44,,[],38,Yes,Açıklamalar daha ayrıntılı olabilirdi. Örneklerle bir yönlendirme olmadan deneye katılanlara destek verilebilirdi.,4,1,Male,TÜRKÇE,Chrome,Windows,768,1366,5.770716666666667,
893,condition1,short,kısa,pencil_short_black,pencil,[0.76],5654,45,,[],38,Yes,Açıklamalar daha ayrıntılı olabilirdi. Örneklerle bir yönlendirme olmadan deneye katılanlara destek verilebilirdi.,4,1,Male,TÜRKÇE,Chrome,Windows,768,1366,5.770716666666667,
893,condition1,sad,mutsuz,woman_old_sad,woman,[1],5635,46,,[],38,Yes,Açıklamalar daha ayrıntılı olabilirdi. Örneklerle bir yönlendirme olmadan deneye katılanlara destek verilebilirdi.,4,1,Male,TÜRKÇE,Chrome,Windows,768,1366,5.770716666666667,
893,condition1,wet,ıslak,shorts_wet_green,shorts,[0],4276,47,,[],38,Yes,Açıklamalar daha ayrıntılı olabilirdi. Örneklerle bir yönlendirme olmadan deneye katılanlara destek verilebilirdi.,4,1,Male,TÜRKÇE,Chrome,Windows,768,1366,5.770716666666667,
893,condition1,hat-wearing,şapkalı,man2_bearded_hatted,man,[0.78],3473,48,,[],38,Yes,Açıklamalar daha ayrıntılı olabilirdi. Örneklerle bir yönlendirme olmadan deneye katılanlara destek verilebilirdi.,4,1,Male,TÜRKÇE,Chrome,Windows,768,1366,5.770716666666667,
916,condition1,,,,beyaz,beyaz,0,1,bot_check,[],20,Yes,deney guzeldi ama daha iyi ola bilirdi,1,1,Female,Azerice,Chrome,Windows,768,1366,2.1736833333333334,
916,condition1,round,yuvarlak,earring_big_round,earring,[0.27],5070,3,,[],20,Yes,deney guzeldi ama daha iyi ola bilirdi,1,1,Female,Azerice,Chrome,Windows,768,1366,2.1736833333333334,
916,condition1,green,yeşil,frog_spotted_green,frog,[0.53],1547,4,,[],20,Yes,deney guzeldi ama daha iyi ola bilirdi,1,1,Female,Azerice,Chrome,Windows,768,1366,2.1736833333333334,
916,condition1,straight,düz,hair_straight_blond,hair,[0.41],1177,5,,[],20,Yes,deney guzeldi ama daha iyi ola bilirdi,1,1,Female,Azerice,Chrome,Windows,768,1366,2.1736833333333334,
916,condition1,curly,kıvırcık,hair_curly_blonde,hair,[0.6],1209,6,,[],20,Yes,deney guzeldi ama daha iyi ola bilirdi,1,1,Female,Azerice,Chrome,Windows,768,1366,2.1736833333333334,
916,condition1,dirty,kirli,spoon_metal_dirty,spoon,[0.42],1299,7,,[],20,Yes,deney guzeldi ama daha iyi ola bilirdi,1,1,Female,Azerice,Chrome,Windows,768,1366,2.1736833333333334,
916,condition1,metal,metal,spoon_metal_clean,spoon,[0.5],1148,8,,[],20,Yes,deney guzeldi ama daha iyi ola bilirdi,1,1,Female,Azerice,Chrome,Windows,768,1366,2.1736833333333334,
916,condition1,big,büyük,bottle_glass_big,bottle,[0.42],1494,9,,[],20,Yes,deney guzeldi ama daha iyi ola bilirdi,1,1,Female,Azerice,Chrome,Windows,768,1366,2.1736833333333334,
916,condition1,glasses-wearing,gözlüklü,man2_bearded_glassed,man,[0.58],1588,10,,[],20,Yes,deney guzeldi ama daha iyi ola bilirdi,1,1,Female,Azerice,Chrome,Windows,768,1366,2.1736833333333334,
916,condition1,happy,mutlu,woman_old_happy,woman,[0.77],4014,11,,[],20,Yes,deney guzeldi ama daha iyi ola bilirdi,1,1,Female,Azerice,Chrome,Windows,768,1366,2.1736833333333334,
916,condition1,plastic,plastik,bottle_plastic_big,bottle,[0.23],2366,12,,[],20,Yes,deney guzeldi ama daha iyi ola bilirdi,1,1,Female,Azerice,Chrome,Windows,768,1366,2.1736833333333334,
916,condition1,skinny,zayıf,woman2_happy_skinny,woman,[0.8],2569,13,,[],20,Yes,deney guzeldi ama daha iyi ola bilirdi,1,1,Female,Azerice,Chrome,Windows,768,1366,2.1736833333333334,
916,condition1,old,yaşlı,man_old_bearded,man,[0.47],2594,14,,[],20,Yes,deney guzeldi ama daha iyi ola bilirdi,1,1,Female,Azerice,Chrome,Windows,768,1366,2.1736833333333334,
916,condition1,clean,temiz,spoon_metal_clean,spoon,[0.5],2657,15,,[],20,Yes,deney guzeldi ama daha iyi ola bilirdi,1,1,Female,Azerice,Chrome,Windows,768,1366,2.1736833333333334,
916,condition1,long,uzun,pencil_long_black,pencil,[0.51],1555,16,,[],20,Yes,deney guzeldi ama daha iyi ola bilirdi,1,1,Female,Azerice,Chrome,Windows,768,1366,2.1736833333333334,
916,condition1,glossy,parlak,nails_black_glossy,nails,[0.79],2417,17,,[],20,Yes,deney guzeldi ama daha iyi ola bilirdi,1,1,Female,Azerice,Chrome,Windows,768,1366,2.1736833333333334,
916,condition1,glass,cam,bottle_glass_big,bottle,[0.49],1436,18,,[],20,Yes,deney guzeldi ama daha iyi ola bilirdi,1,1,Female,Azerice,Chrome,Windows,768,1366,2.1736833333333334,
916,condition1,bearded,sakallı,man_old_bearded,man,[0.65],1477,19,,[],20,Yes,deney guzeldi ama daha iyi ola bilirdi,1,1,Female,Azerice,Chrome,Windows,768,1366,2.1736833333333334,
916,condition1,rectangular,dikdörtgen,picture_bw_rectangular,picture,[0.75],1824,20,,[],20,Yes,deney guzeldi ama daha iyi ola bilirdi,1,1,Female,Azerice,Chrome,Windows,768,1366,2.1736833333333334,
916,condition1,low,alçak,table_metal_low,table,[0.21],2061,21,,[],20,Yes,deney guzeldi ama daha iyi ola bilirdi,1,1,Female,Azerice,Chrome,Windows,768,1366,2.1736833333333334,
916,condition1,clean-shaven,sakalsız,man_old_cleanshaven,man,[0.67],1338,22,,[],20,Yes,deney guzeldi ama daha iyi ola bilirdi,1,1,Female,Azerice,Chrome,Windows,768,1366,2.1736833333333334,
916,condition1,dry,kuru,shorts_dry_green,shorts,[0.44],2685,23,,[],20,Yes,deney guzeldi ama daha iyi ola bilirdi,1,1,Female,Azerice,Chrome,Windows,768,1366,2.1736833333333334,
916,condition1,red,kırmızı,frog_spotted_red,frog,[0.61],1754,24,,[],20,Yes,deney guzeldi ama daha iyi ola bilirdi,1,1,Female,Azerice,Chrome,Windows,768,1366,2.1736833333333334,
916,condition1,blue,mavi,pencil_long_blue,pencil,[0.53],1358,25,,[],20,Yes,deney guzeldi ama daha iyi ola bilirdi,1,1,Female,Azerice,Chrome,Windows,768,1366,2.1736833333333334,
916,condition1,spotted,benekli,frog_spotted_green,frog,[0.68],1833,26,,[],20,Yes,deney guzeldi ama daha iyi ola bilirdi,1,1,Female,Azerice,Chrome,Windows,768,1366,2.1736833333333334,
916,condition1,matte,mat,nails_black_matte,nails,[0.77],2012,27,,[],20,Yes,deney guzeldi ama daha iyi ola bilirdi,1,1,Female,Azerice,Chrome,Windows,768,1366,2.1736833333333334,
916,condition1,blond,sarı,hair_curly_blonde,hair,[0.36],2200,28,,[],20,Yes,deney guzeldi ama daha iyi ola bilirdi,1,1,Female,Azerice,Chrome,Windows,768,1366,2.1736833333333334,
916,condition1,black and white,siyah beyaz,picture_bw_rectangular,picture,[0.31],1376,29,,[],20,Yes,deney guzeldi ama daha iyi ola bilirdi,1,1,Female,Azerice,Chrome,Windows,768,1366,2.1736833333333334,
916,condition1,hat-wearing,şapkalı,man2_bearded_hatted,man,[0.35],1447,30,,[],20,Yes,deney guzeldi ama daha iyi ola bilirdi,1,1,Female,Azerice,Chrome,Windows,768,1366,2.1736833333333334,
916,condition1,mustache-touting,bıyıklı,man2_mustached_glassed,man,[0.5],1349,31,,[],20,Yes,deney guzeldi ama daha iyi ola bilirdi,1,1,Female,Azerice,Chrome,Windows,768,1366,2.1736833333333334,
916,condition1,high,yüksek,table_metal_high,table,[0.51],2494,32,,[],20,Yes,deney guzeldi ama daha iyi ola bilirdi,1,1,Female,Azerice,Chrome,Windows,768,1366,2.1736833333333334,
916,condition1,square,kare,picture_bw_square,picture,[0.32],2162,33,,[],20,Yes,deney guzeldi ama daha iyi ola bilirdi,1,1,Female,Azerice,Chrome,Windows,768,1366,2.1736833333333334,
916,condition1,young,genç,man_young_bearded,man,[0.74],2004,34,,[],20,Yes,deney guzeldi ama daha iyi ola bilirdi,1,1,Female,Azerice,Chrome,Windows,768,1366,2.1736833333333334,
916,condition1,black,siyah,nails_black_glossy,nails,[0.34],1980,35,,[],20,Yes,deney guzeldi ama daha iyi ola bilirdi,1,1,Female,Azerice,Chrome,Windows,768,1366,2.1736833333333334,
916,condition1,short,kısa,pencil_short_black,pencil,[0.32],2102,36,,[],20,Yes,deney guzeldi ama daha iyi ola bilirdi,1,1,Female,Azerice,Chrome,Windows,768,1366,2.1736833333333334,
916,condition1,wooden,tahta,spoon_wooden_clean,spoon,[0.63],2280,37,,[],20,Yes,deney guzeldi ama daha iyi ola bilirdi,1,1,Female,Azerice,Chrome,Windows,768,1366,2.1736833333333334,
916,condition1,triangular,üçgen,earring_big_triangular,earring,[0.31],2566,38,,[],20,Yes,deney guzeldi ama daha iyi ola bilirdi,1,1,Female,Azerice,Chrome,Windows,768,1366,2.1736833333333334,
916,condition1,striped,çizgili,frog_striped_green,frog,[0.54],1417,39,,[],20,Yes,deney guzeldi ama daha iyi ola bilirdi,1,1,Female,Azerice,Chrome,Windows,768,1366,2.1736833333333334,
916,condition1,fat,şişman,woman2_happy_fat,woman,[0.45],1506,40,,[],20,Yes,deney guzeldi ama daha iyi ola bilirdi,1,1,Female,Azerice,Chrome,Windows,768,1366,2.1736833333333334,
916,condition1,sad,mutsuz,woman_old_sad,woman,[0.49],1764,41,,[],20,Yes,deney guzeldi ama daha iyi ola bilirdi,1,1,Female,Azerice,Chrome,Windows,768,1366,2.1736833333333334,
916,condition1,colored,renkli,picture_colored_rectangular,picture,[0.29],1576,42,,[],20,Yes,deney guzeldi ama daha iyi ola bilirdi,1,1,Female,Azerice,Chrome,Windows,768,1366,2.1736833333333334,
916,condition1,small,küçük,bottle_glass_small,bottle,[0.55],1168,43,,[],20,Yes,deney guzeldi ama daha iyi ola bilirdi,1,1,Female,Azerice,Chrome,Windows,768,1366,2.1736833333333334,
916,condition1,wet,ıslak,shorts_wet_green,shorts,[0.56],1188,44,,[],20,Yes,deney guzeldi ama daha iyi ola bilirdi,1,1,Female,Azerice,Chrome,Windows,768,1366,2.1736833333333334,
916,condition1,closed,kapalı,box_closed_cardboard,box,[0.66],1872,45,,[],20,Yes,deney guzeldi ama daha iyi ola bilirdi,1,1,Female,Azerice,Chrome,Windows,768,1366,2.1736833333333334,
916,condition1,brown,kahverengi,hair_curly_brown,hair,[0.5],1229,46,,[],20,Yes,deney guzeldi ama daha iyi ola bilirdi,1,1,Female,Azerice,Chrome,Windows,768,1366,2.1736833333333334,
916,condition1,cardboard,karton,box_closed_cardboard,box,[0.65],1267,47,,[],20,Yes,deney guzeldi ama daha iyi ola bilirdi,1,1,Female,Azerice,Chrome,Windows,768,1366,2.1736833333333334,
916,condition1,open,açık,box_open_cardboard,box,[0.37],1180,48,,[],20,Yes,deney guzeldi ama daha iyi ola bilirdi,1,1,Female,Azerice,Chrome,Windows,768,1366,2.1736833333333334,
942,condition1,,,,beyaz,Beyaz,0,1,bot_check,[],,,,-1,-1,,,Firefox,Windows,1080,1920,4.53425,
942,condition1,glossy,parlak,nails_black_glossy,nails,[0.89],35676,3,,[],,,,-1,-1,,,Firefox,Windows,1080,1920,4.53425,
942,condition1,wooden,tahta,spoon_wooden_clean,spoon,[0.01],6688,4,,[],,,,-1,-1,,,Firefox,Windows,1080,1920,4.53425,
942,condition1,cardboard,karton,box_closed_cardboard,box,[0.01],3192,5,,[],,,,-1,-1,,,Firefox,Windows,1080,1920,4.53425,
942,condition1,big,büyük,bottle_glass_big,bottle,[0.92],2984,6,,[],,,,-1,-1,,,Firefox,Windows,1080,1920,4.53425,
942,condition1,low,alçak,table_metal_low,table,[1],2807,7,,[],,,,-1,-1,,,Firefox,Windows,1080,1920,4.53425,
942,condition1,clean,temiz,spoon_metal_clean,spoon,[0.97],6663,8,,[],,,,-1,-1,,,Firefox,Windows,1080,1920,4.53425,
942,condition1,fat,şişman,woman2_happy_fat,woman,[0.59],4553,9,,[],,,,-1,-1,,,Firefox,Windows,1080,1920,4.53425,
942,condition1,black and white,siyah beyaz,picture_bw_rectangular,picture,[0.58],3104,10,,[],,,,-1,-1,,,Firefox,Windows,1080,1920,4.53425,
942,condition1,blond,sarı,hair_curly_blonde,hair,[0],46134,11,,[],,,,-1,-1,,,Firefox,Windows,1080,1920,4.53425,
942,condition1,matte,mat,nails_black_matte,nails,[0.8],10633,12,,[],,,,-1,-1,,,Firefox,Windows,1080,1920,4.53425,
942,condition1,high,yüksek,table_metal_high,table,[0.9],2392,13,,[],,,,-1,-1,,,Firefox,Windows,1080,1920,4.53425,
942,condition1,dry,kuru,shorts_dry_green,shorts,[0.92],5279,14,,[],,,,-1,-1,,,Firefox,Windows,1080,1920,4.53425,
942,condition1,plastic,plastik,bottle_plastic_big,bottle,[0.02],2184,15,,[],,,,-1,-1,,,Firefox,Windows,1080,1920,4.53425,
942,condition1,square,kare,picture_bw_square,picture,[0.54],3480,16,,[],,,,-1,-1,,,Firefox,Windows,1080,1920,4.53425,
942,condition1,wet,ıslak,shorts_wet_green,shorts,[0.8],4007,17,,[],,,,-1,-1,,,Firefox,Windows,1080,1920,4.53425,
942,condition1,young,genç,man_young_bearded,man,[0.02],5560,18,,[],,,,-1,-1,,,Firefox,Windows,1080,1920,4.53425,
942,condition1,straight,düz,hair_straight_blond,hair,[0.04],1984,19,,[],,,,-1,-1,,,Firefox,Windows,1080,1920,4.53425,
942,condition1,green,yeşil,frog_spotted_green,frog,[0.21],12464,20,,[],,,,-1,-1,,,Firefox,Windows,1080,1920,4.53425,
942,condition1,metal,metal,spoon_metal_clean,spoon,[0.01],2592,21,,[],,,,-1,-1,,,Firefox,Windows,1080,1920,4.53425,
942,condition1,long,uzun,pencil_long_black,pencil,[0.76],2288,22,,[],,,,-1,-1,,,Firefox,Windows,1080,1920,4.53425,
942,condition1,mustache-touting,bıyıklı,man2_mustached_glassed,man,[0.76],3888,23,,[],,,,-1,-1,,,Firefox,Windows,1080,1920,4.53425,
942,condition1,closed,kapalı,box_closed_cardboard,box,[0.66],1648,24,,[],,,,-1,-1,,,Firefox,Windows,1080,1920,4.53425,
942,condition1,brown,kahverengi,hair_curly_brown,hair,[0.04],4496,25,,[],,,,-1,-1,,,Firefox,Windows,1080,1920,4.53425,
942,condition1,glass,cam,bottle_glass_big,bottle,[0],2216,26,,[],,,,-1,-1,,,Firefox,Windows,1080,1920,4.53425,
942,condition1,short,kısa,pencil_short_black,pencil,[0.77],1879,27,,[],,,,-1,-1,,,Firefox,Windows,1080,1920,4.53425,
942,condition1,triangular,üçgen,earring_big_triangular,earring,[0.67],1785,28,,[],,,,-1,-1,,,Firefox,Windows,1080,1920,4.53425,
942,condition1,black,siyah,nails_black_glossy,nails,[0.69],1840,29,,[],,,,-1,-1,,,Firefox,Windows,1080,1920,4.53425,
942,condition1,sad,mutsuz,woman_old_sad,woman,[0.72],3719,30,,[],,,,-1,-1,,,Firefox,Windows,1080,1920,4.53425,
942,condition1,blue,mavi,pencil_long_blue,pencil,[0.63],1991,31,,[],,,,-1,-1,,,Firefox,Windows,1080,1920,4.53425,
942,condition1,old,yaşlı,man_old_bearded,man,[0.6],2136,32,,[],,,,-1,-1,,,Firefox,Windows,1080,1920,4.53425,
942,condition1,red,kırmızı,frog_spotted_red,frog,[0.55],5751,33,,[],,,,-1,-1,,,Firefox,Windows,1080,1920,4.53425,
942,condition1,rectangular,dikdörtgen,picture_bw_rectangular,picture,[0.53],2225,34,,[],,,,-1,-1,,,Firefox,Windows,1080,1920,4.53425,
942,condition1,hat-wearing,şapkalı,man2_bearded_hatted,man,[0.59],18296,35,,[],,,,-1,-1,,,Firefox,Windows,1080,1920,4.53425,
942,condition1,colored,renkli,picture_colored_rectangular,picture,[0.69],1503,36,,[],,,,-1,-1,,,Firefox,Windows,1080,1920,4.53425,
942,condition1,clean-shaven,sakalsız,man_old_cleanshaven,man,[0.33],4640,37,,[],,,,-1,-1,,,Firefox,Windows,1080,1920,4.53425,
942,condition1,skinny,zayıf,woman2_happy_skinny,woman,[0.56],2673,38,,[],,,,-1,-1,,,Firefox,Windows,1080,1920,4.53425,
942,condition1,happy,mutlu,woman_old_happy,woman,[0.72],5559,39,,[],,,,-1,-1,,,Firefox,Windows,1080,1920,4.53425,
942,condition1,dirty,kirli,spoon_metal_dirty,spoon,[0.61],2167,40,,[],,,,-1,-1,,,Firefox,Windows,1080,1920,4.53425,
942,condition1,spotted,benekli,frog_spotted_green,frog,[0.58],4432,41,,[],,,,-1,-1,,,Firefox,Windows,1080,1920,4.53425,
942,condition1,open,açık,box_open_cardboard,box,[0.53],2032,42,,[],,,,-1,-1,,,Firefox,Windows,1080,1920,4.53425,
942,condition1,glasses-wearing,gözlüklü,man2_bearded_glassed,man,[0.65],2808,43,,[],,,,-1,-1,,,Firefox,Windows,1080,1920,4.53425,
942,condition1,striped,çizgili,frog_striped_green,frog,[0.68],1713,44,,[],,,,-1,-1,,,Firefox,Windows,1080,1920,4.53425,
942,condition1,round,yuvarlak,earring_big_round,earring,[0.68],2160,45,,[],,,,-1,-1,,,Firefox,Windows,1080,1920,4.53425,
942,condition1,bearded,sakallı,man_old_bearded,man,[0.29],3887,46,,[],,,,-1,-1,,,Firefox,Windows,1080,1920,4.53425,
942,condition1,small,küçük,bottle_glass_small,bottle,[0.62],5776,47,,[],,,,-1,-1,,,Firefox,Windows,1080,1920,4.53425,
942,condition1,curly,kıvırcık,hair_curly_blonde,hair,[0.46],3625,48,,[],,,,-1,-1,,,Firefox,Windows,1080,1920,4.53425,
896,condition1,,,,beyaz,Beyaz,0,1,bot_check,[],24,No,,4,1,Female,Türkçe,Chrome,Mac,800,1280,3.2452833333333335,
896,condition1,plastic,plastik,bottle_plastic_big,bottle,[0],10288,3,,[],24,No,,4,1,Female,Türkçe,Chrome,Mac,800,1280,3.2452833333333335,
896,condition1,green,yeşil,frog_spotted_green,frog,[0.83],2873,4,,[],24,No,,4,1,Female,Türkçe,Chrome,Mac,800,1280,3.2452833333333335,
896,condition1,big,büyük,bottle_glass_big,bottle,[0.66],3511,5,,[],24,No,,4,1,Female,Türkçe,Chrome,Mac,800,1280,3.2452833333333335,
896,condition1,blue,mavi,pencil_long_blue,pencil,[0.73],2133,6,,[],24,No,,4,1,Female,Türkçe,Chrome,Mac,800,1280,3.2452833333333335,
896,condition1,colored,renkli,picture_colored_rectangular,picture,[0.81],3828,7,,[],24,No,,4,1,Female,Türkçe,Chrome,Mac,800,1280,3.2452833333333335,
896,condition1,glasses-wearing,gözlüklü,man2_bearded_glassed,man,[0.75],3820,8,,[],24,No,,4,1,Female,Türkçe,Chrome,Mac,800,1280,3.2452833333333335,
896,condition1,round,yuvarlak,earring_big_round,earring,[0.68],3608,9,,[],24,No,,4,1,Female,Türkçe,Chrome,Mac,800,1280,3.2452833333333335,
896,condition1,sad,mutsuz,woman_old_sad,woman,[0.85],2262,10,,[],24,No,,4,1,Female,Türkçe,Chrome,Mac,800,1280,3.2452833333333335,
896,condition1,curly,kıvırcık,hair_curly_blonde,hair,[0.31],2566,11,,[],24,No,,4,1,Female,Türkçe,Chrome,Mac,800,1280,3.2452833333333335,
896,condition1,clean-shaven,sakalsız,man_old_cleanshaven,man,[0.23],2876,12,,[],24,No,,4,1,Female,Türkçe,Chrome,Mac,800,1280,3.2452833333333335,
896,condition1,metal,metal,spoon_metal_clean,spoon,[0],2977,13,,[],24,No,,4,1,Female,Türkçe,Chrome,Mac,800,1280,3.2452833333333335,
896,condition1,glossy,parlak,nails_black_glossy,nails,[0.76],2065,14,,[],24,No,,4,1,Female,Türkçe,Chrome,Mac,800,1280,3.2452833333333335,
896,condition1,triangular,üçgen,earring_big_triangular,earring,[0.09],5130,15,,[],24,No,,4,1,Female,Türkçe,Chrome,Mac,800,1280,3.2452833333333335,
896,condition1,high,yüksek,table_metal_high,table,[0.38],2985,16,,[],24,No,,4,1,Female,Türkçe,Chrome,Mac,800,1280,3.2452833333333335,
896,condition1,brown,kahverengi,hair_curly_brown,hair,[0.72],3138,17,,[],24,No,,4,1,Female,Türkçe,Chrome,Mac,800,1280,3.2452833333333335,
896,condition1,mustache-touting,bıyıklı,man2_mustached_glassed,man,[0.17],2539,18,,[],24,No,,4,1,Female,Türkçe,Chrome,Mac,800,1280,3.2452833333333335,
896,condition1,short,kısa,pencil_short_black,pencil,[0.43],5515,19,,[],24,No,,4,1,Female,Türkçe,Chrome,Mac,800,1280,3.2452833333333335,
896,condition1,happy,mutlu,woman_old_happy,woman,[0.84],2165,20,,[],24,No,,4,1,Female,Türkçe,Chrome,Mac,800,1280,3.2452833333333335,
896,condition1,spotted,benekli,frog_spotted_green,frog,[0.15],4954,21,,[],24,No,,4,1,Female,Türkçe,Chrome,Mac,800,1280,3.2452833333333335,
896,condition1,clean,temiz,spoon_metal_clean,spoon,[0.79],2313,22,,[],24,No,,4,1,Female,Türkçe,Chrome,Mac,800,1280,3.2452833333333335,
896,condition1,striped,çizgili,frog_striped_green,frog,[0.15],2365,23,,[],24,No,,4,1,Female,Türkçe,Chrome,Mac,800,1280,3.2452833333333335,
896,condition1,fat,şişman,woman2_happy_fat,woman,[0.39],6737,24,,[],24,No,,4,1,Female,Türkçe,Chrome,Mac,800,1280,3.2452833333333335,
896,condition1,open,açık,box_open_cardboard,box,[0.43],6696,25,,[],24,No,,4,1,Female,Türkçe,Chrome,Mac,800,1280,3.2452833333333335,
896,condition1,glass,cam,bottle_glass_big,bottle,[0],2732,26,,[],24,No,,4,1,Female,Türkçe,Chrome,Mac,800,1280,3.2452833333333335,
896,condition1,old,yaşlı,man_old_bearded,man,[0.23],4181,27,,[],24,No,,4,1,Female,Türkçe,Chrome,Mac,800,1280,3.2452833333333335,
896,condition1,wet,ıslak,shorts_wet_green,shorts,[0.6],2684,28,,[],24,No,,4,1,Female,Türkçe,Chrome,Mac,800,1280,3.2452833333333335,
896,condition1,wooden,tahta,spoon_wooden_clean,spoon,[0.02],4805,29,,[],24,No,,4,1,Female,Türkçe,Chrome,Mac,800,1280,3.2452833333333335,
896,condition1,square,kare,picture_bw_square,picture,[0],3230,30,,[],24,No,,4,1,Female,Türkçe,Chrome,Mac,800,1280,3.2452833333333335,
896,condition1,long,uzun,pencil_long_black,pencil,[0.58],2761,31,,[],24,No,,4,1,Female,Türkçe,Chrome,Mac,800,1280,3.2452833333333335,
896,condition1,low,alçak,table_metal_low,table,[0.57],2450,32,,[],24,No,,4,1,Female,Türkçe,Chrome,Mac,800,1280,3.2452833333333335,
896,condition1,red,kırmızı,frog_spotted_red,frog,[0.76],2238,33,,[],24,No,,4,1,Female,Türkçe,Chrome,Mac,800,1280,3.2452833333333335,
896,condition1,matte,mat,nails_black_matte,nails,[0.8],2961,34,,[],24,No,,4,1,Female,Türkçe,Chrome,Mac,800,1280,3.2452833333333335,
896,condition1,black and white,siyah beyaz,picture_bw_rectangular,picture,[0],2955,35,,[],24,No,,4,1,Female,Türkçe,Chrome,Mac,800,1280,3.2452833333333335,
896,condition1,straight,düz,hair_straight_blond,hair,[0.38],3122,36,,[],24,No,,4,1,Female,Türkçe,Chrome,Mac,800,1280,3.2452833333333335,
896,condition1,closed,kapalı,box_closed_cardboard,box,[0.26],2378,37,,[],24,No,,4,1,Female,Türkçe,Chrome,Mac,800,1280,3.2452833333333335,
896,condition1,hat-wearing,şapkalı,man2_bearded_hatted,man,[0.16],3363,38,,[],24,No,,4,1,Female,Türkçe,Chrome,Mac,800,1280,3.2452833333333335,
896,condition1,black,siyah,nails_black_glossy,nails,[0.78],2185,39,,[],24,No,,4,1,Female,Türkçe,Chrome,Mac,800,1280,3.2452833333333335,
896,condition1,cardboard,karton,box_closed_cardboard,box,[0.28],3954,40,,[],24,No,,4,1,Female,Türkçe,Chrome,Mac,800,1280,3.2452833333333335,
896,condition1,dry,kuru,shorts_dry_green,shorts,[0.67],4126,41,,[],24,No,,4,1,Female,Türkçe,Chrome,Mac,800,1280,3.2452833333333335,
896,condition1,young,genç,man_young_bearded,man,[0.33],3555,42,,[],24,No,,4,1,Female,Türkçe,Chrome,Mac,800,1280,3.2452833333333335,
896,condition1,bearded,sakallı,man_old_bearded,man,[0.09],4761,43,,[],24,No,,4,1,Female,Türkçe,Chrome,Mac,800,1280,3.2452833333333335,
896,condition1,skinny,zayıf,woman2_happy_skinny,woman,[0.58],4805,44,,[],24,No,,4,1,Female,Türkçe,Chrome,Mac,800,1280,3.2452833333333335,
896,condition1,dirty,kirli,spoon_metal_dirty,spoon,[0.42],1699,45,,[],24,No,,4,1,Female,Türkçe,Chrome,Mac,800,1280,3.2452833333333335,
896,condition1,blond,sarı,hair_curly_blonde,hair,[0.42],2539,46,,[],24,No,,4,1,Female,Türkçe,Chrome,Mac,800,1280,3.2452833333333335,
896,condition1,small,küçük,bottle_glass_small,bottle,[0.34],3025,47,,[],24,No,,4,1,Female,Türkçe,Chrome,Mac,800,1280,3.2452833333333335,
896,condition1,rectangular,dikdörtgen,picture_bw_rectangular,picture,[0],2305,48,,[],24,No,,4,1,Female,Türkçe,Chrome,Mac,800,1280,3.2452833333333335,
948,condition1,,,,beyaz,Beyaz,0,1,bot_check,[],27,Yes,Düşündürmeye iten bir test.,4,1,Male,Türkçe,Chrome,Windows,768,1366,2.474283333333333,
948,condition1,old,yaşlı,man_old_bearded,man,[0.64],7119,3,,[],27,Yes,Düşündürmeye iten bir test.,4,1,Male,Türkçe,Chrome,Windows,768,1366,2.474283333333333,
948,condition1,wet,ıslak,shorts_wet_green,shorts,[0.69],2832,4,,[],27,Yes,Düşündürmeye iten bir test.,4,1,Male,Türkçe,Chrome,Windows,768,1366,2.474283333333333,
948,condition1,brown,kahverengi,hair_curly_brown,hair,[0],2208,5,,[],27,Yes,Düşündürmeye iten bir test.,4,1,Male,Türkçe,Chrome,Windows,768,1366,2.474283333333333,
948,condition1,hat-wearing,şapkalı,man2_bearded_hatted,man,[0],1839,6,,[],27,Yes,Düşündürmeye iten bir test.,4,1,Male,Türkçe,Chrome,Windows,768,1366,2.474283333333333,
948,condition1,cardboard,karton,box_closed_cardboard,box,[0.23],3409,7,,[],27,Yes,Düşündürmeye iten bir test.,4,1,Male,Türkçe,Chrome,Windows,768,1366,2.474283333333333,
948,condition1,clean-shaven,sakalsız,man_old_cleanshaven,man,[0],3920,8,,[],27,Yes,Düşündürmeye iten bir test.,4,1,Male,Türkçe,Chrome,Windows,768,1366,2.474283333333333,
948,condition1,straight,düz,hair_straight_blond,hair,[0],2536,9,,[],27,Yes,Düşündürmeye iten bir test.,4,1,Male,Türkçe,Chrome,Windows,768,1366,2.474283333333333,
948,condition1,high,yüksek,table_metal_high,table,[0.83],3720,10,,[],27,Yes,Düşündürmeye iten bir test.,4,1,Male,Türkçe,Chrome,Windows,768,1366,2.474283333333333,
948,condition1,green,yeşil,frog_spotted_green,frog,[0],1800,11,,[],27,Yes,Düşündürmeye iten bir test.,4,1,Male,Türkçe,Chrome,Windows,768,1366,2.474283333333333,
948,condition1,rectangular,dikdörtgen,picture_bw_rectangular,picture,[0],1552,12,,[],27,Yes,Düşündürmeye iten bir test.,4,1,Male,Türkçe,Chrome,Windows,768,1366,2.474283333333333,
948,condition1,long,uzun,pencil_long_black,pencil,[0.85],1936,13,,[],27,Yes,Düşündürmeye iten bir test.,4,1,Male,Türkçe,Chrome,Windows,768,1366,2.474283333333333,
948,condition1,glossy,parlak,nails_black_glossy,nails,[0.7],2256,14,,[],27,Yes,Düşündürmeye iten bir test.,4,1,Male,Türkçe,Chrome,Windows,768,1366,2.474283333333333,
948,condition1,striped,çizgili,frog_striped_green,frog,[0],1984,15,,[],27,Yes,Düşündürmeye iten bir test.,4,1,Male,Türkçe,Chrome,Windows,768,1366,2.474283333333333,
948,condition1,dirty,kirli,spoon_metal_dirty,spoon,[0.31],3113,16,,[],27,Yes,Düşündürmeye iten bir test.,4,1,Male,Türkçe,Chrome,Windows,768,1366,2.474283333333333,
948,condition1,closed,kapalı,box_closed_cardboard,box,[0],2023,17,,[],27,Yes,Düşündürmeye iten bir test.,4,1,Male,Türkçe,Chrome,Windows,768,1366,2.474283333333333,
948,condition1,glasses-wearing,gözlüklü,man2_bearded_glassed,man,[0],1536,18,,[],27,Yes,Düşündürmeye iten bir test.,4,1,Male,Türkçe,Chrome,Windows,768,1366,2.474283333333333,
948,condition1,big,büyük,bottle_glass_big,bottle,[0.77],2120,19,,[],27,Yes,Düşündürmeye iten bir test.,4,1,Male,Türkçe,Chrome,Windows,768,1366,2.474283333333333,
948,condition1,short,kısa,pencil_short_black,pencil,[0.78],1648,20,,[],27,Yes,Düşündürmeye iten bir test.,4,1,Male,Türkçe,Chrome,Windows,768,1366,2.474283333333333,
948,condition1,blue,mavi,pencil_long_blue,pencil,[0],2312,21,,[],27,Yes,Düşündürmeye iten bir test.,4,1,Male,Türkçe,Chrome,Windows,768,1366,2.474283333333333,
948,condition1,glass,cam,bottle_glass_big,bottle,[0.28],2744,22,,[],27,Yes,Düşündürmeye iten bir test.,4,1,Male,Türkçe,Chrome,Windows,768,1366,2.474283333333333,
948,condition1,square,kare,picture_bw_square,picture,[0.01],2776,23,,[],27,Yes,Düşündürmeye iten bir test.,4,1,Male,Türkçe,Chrome,Windows,768,1366,2.474283333333333,
948,condition1,spotted,benekli,frog_spotted_green,frog,[0],2872,24,,[],27,Yes,Düşündürmeye iten bir test.,4,1,Male,Türkçe,Chrome,Windows,768,1366,2.474283333333333,
948,condition1,plastic,plastik,bottle_plastic_big,bottle,[0.75],2424,25,,[],27,Yes,Düşündürmeye iten bir test.,4,1,Male,Türkçe,Chrome,Windows,768,1366,2.474283333333333,
948,condition1,black,siyah,nails_black_glossy,nails,[0],2144,26,,[],27,Yes,Düşündürmeye iten bir test.,4,1,Male,Türkçe,Chrome,Windows,768,1366,2.474283333333333,
948,condition1,happy,mutlu,woman_old_happy,woman,[1],2312,27,,[],27,Yes,Düşündürmeye iten bir test.,4,1,Male,Türkçe,Chrome,Windows,768,1366,2.474283333333333,
948,condition1,small,küçük,bottle_glass_small,bottle,[0.85],1768,28,,[],27,Yes,Düşündürmeye iten bir test.,4,1,Male,Türkçe,Chrome,Windows,768,1366,2.474283333333333,
948,condition1,fat,şişman,woman2_happy_fat,woman,[0.77],1824,29,,[],27,Yes,Düşündürmeye iten bir test.,4,1,Male,Türkçe,Chrome,Windows,768,1366,2.474283333333333,
948,condition1,round,yuvarlak,earring_big_round,earring,[0],2472,30,,[],27,Yes,Düşündürmeye iten bir test.,4,1,Male,Türkçe,Chrome,Windows,768,1366,2.474283333333333,
948,condition1,bearded,sakallı,man_old_bearded,man,[0],1536,31,,[],27,Yes,Düşündürmeye iten bir test.,4,1,Male,Türkçe,Chrome,Windows,768,1366,2.474283333333333,
948,condition1,black and white,siyah beyaz,picture_bw_rectangular,picture,[0],1728,32,,[],27,Yes,Düşündürmeye iten bir test.,4,1,Male,Türkçe,Chrome,Windows,768,1366,2.474283333333333,
948,condition1,red,kırmızı,frog_spotted_red,frog,[0],1496,33,,[],27,Yes,Düşündürmeye iten bir test.,4,1,Male,Türkçe,Chrome,Windows,768,1366,2.474283333333333,
948,condition1,blond,sarı,hair_curly_blonde,hair,[0],2288,34,,[],27,Yes,Düşündürmeye iten bir test.,4,1,Male,Türkçe,Chrome,Windows,768,1366,2.474283333333333,
948,condition1,triangular,üçgen,earring_big_triangular,earring,[0],1552,35,,[],27,Yes,Düşündürmeye iten bir test.,4,1,Male,Türkçe,Chrome,Windows,768,1366,2.474283333333333,
948,condition1,curly,kıvırcık,hair_curly_blonde,hair,[0],1888,36,,[],27,Yes,Düşündürmeye iten bir test.,4,1,Male,Türkçe,Chrome,Windows,768,1366,2.474283333333333,
948,condition1,wooden,tahta,spoon_wooden_clean,spoon,[0.18],2560,37,,[],27,Yes,Düşündürmeye iten bir test.,4,1,Male,Türkçe,Chrome,Windows,768,1366,2.474283333333333,
948,condition1,mustache-touting,bıyıklı,man2_mustached_glassed,man,[0],2248,38,,[],27,Yes,Düşündürmeye iten bir test.,4,1,Male,Türkçe,Chrome,Windows,768,1366,2.474283333333333,
948,condition1,open,açık,box_open_cardboard,box,[0],1920,39,,[],27,Yes,Düşündürmeye iten bir test.,4,1,Male,Türkçe,Chrome,Windows,768,1366,2.474283333333333,
948,condition1,sad,mutsuz,woman_old_sad,woman,[1],2464,40,,[],27,Yes,Düşündürmeye iten bir test.,4,1,Male,Türkçe,Chrome,Windows,768,1366,2.474283333333333,
948,condition1,skinny,zayıf,woman2_happy_skinny,woman,[0.86],1656,41,,[],27,Yes,Düşündürmeye iten bir test.,4,1,Male,Türkçe,Chrome,Windows,768,1366,2.474283333333333,
948,condition1,matte,mat,nails_black_matte,nails,[0.79],1799,42,,[],27,Yes,Düşündürmeye iten bir test.,4,1,Male,Türkçe,Chrome,Windows,768,1366,2.474283333333333,
948,condition1,metal,metal,spoon_metal_clean,spoon,[0],3137,43,,[],27,Yes,Düşündürmeye iten bir test.,4,1,Male,Türkçe,Chrome,Windows,768,1366,2.474283333333333,
948,condition1,dry,kuru,shorts_dry_green,shorts,[0.19],2016,44,,[],27,Yes,Düşündürmeye iten bir test.,4,1,Male,Türkçe,Chrome,Windows,768,1366,2.474283333333333,
948,condition1,clean,temiz,spoon_metal_clean,spoon,[1],2864,45,,[],27,Yes,Düşündürmeye iten bir test.,4,1,Male,Türkçe,Chrome,Windows,768,1366,2.474283333333333,
948,condition1,colored,renkli,picture_colored_rectangular,picture,[0],1992,46,,[],27,Yes,Düşündürmeye iten bir test.,4,1,Male,Türkçe,Chrome,Windows,768,1366,2.474283333333333,
948,condition1,young,genç,man_young_bearded,man,[0.84],2504,47,,[],27,Yes,Düşündürmeye iten bir test.,4,1,Male,Türkçe,Chrome,Windows,768,1366,2.474283333333333,
948,condition1,low,alçak,table_metal_low,table,[0.97],2071,48,,[],27,Yes,Düşündürmeye iten bir test.,4,1,Male,Türkçe,Chrome,Windows,768,1366,2.474283333333333,
930,condition1,,,,beyaz,Beyaz,0,1,bot_check,[],37,Yes,Teşekkürler,4,1,Male,Türkçe,Chrome,Mac,900,1440,3.89315,
930,condition1,young,genç,man_young_bearded,man,[0.79],12381,3,,[],37,Yes,Teşekkürler,4,1,Male,Türkçe,Chrome,Mac,900,1440,3.89315,
930,condition1,dry,kuru,shorts_dry_green,shorts,[0.23],5242,4,,[],37,Yes,Teşekkürler,4,1,Male,Türkçe,Chrome,Mac,900,1440,3.89315,
930,condition1,spotted,benekli,frog_spotted_green,frog,[0.01],45104,5,,[],37,Yes,Teşekkürler,4,1,Male,Türkçe,Chrome,Mac,900,1440,3.89315,
930,condition1,happy,mutlu,woman_old_happy,woman,[0.75],2726,6,,[],37,Yes,Teşekkürler,4,1,Male,Türkçe,Chrome,Mac,900,1440,3.89315,
930,condition1,red,kırmızı,frog_spotted_red,frog,[0.18],2562,7,,[],37,Yes,Teşekkürler,4,1,Male,Türkçe,Chrome,Mac,900,1440,3.89315,
930,condition1,black and white,siyah beyaz,picture_bw_rectangular,picture,[0.01],2382,8,,[],37,Yes,Teşekkürler,4,1,Male,Türkçe,Chrome,Mac,900,1440,3.89315,
930,condition1,clean-shaven,sakalsız,man_old_cleanshaven,man,[0.02],4469,9,,[],37,Yes,Teşekkürler,4,1,Male,Türkçe,Chrome,Mac,900,1440,3.89315,
930,condition1,glasses-wearing,gözlüklü,man2_bearded_glassed,man,[0.01],3391,10,,[],37,Yes,Teşekkürler,4,1,Male,Türkçe,Chrome,Mac,900,1440,3.89315,
930,condition1,small,küçük,bottle_glass_small,bottle,[0.86],3273,11,,[],37,Yes,Teşekkürler,4,1,Male,Türkçe,Chrome,Mac,900,1440,3.89315,
930,condition1,straight,düz,hair_straight_blond,hair,[0.11],5052,12,,[],37,Yes,Teşekkürler,4,1,Male,Türkçe,Chrome,Mac,900,1440,3.89315,
930,condition1,square,kare,picture_bw_square,picture,[0.07],2959,13,,[],37,Yes,Teşekkürler,4,1,Male,Türkçe,Chrome,Mac,900,1440,3.89315,
930,condition1,plastic,plastik,bottle_plastic_big,bottle,[0.02],2625,14,,[],37,Yes,Teşekkürler,4,1,Male,Türkçe,Chrome,Mac,900,1440,3.89315,
930,condition1,closed,kapalı,box_closed_cardboard,box,[0.01],2313,15,,[],37,Yes,Teşekkürler,4,1,Male,Türkçe,Chrome,Mac,900,1440,3.89315,
930,condition1,wooden,tahta,spoon_wooden_clean,spoon,[0.02],2355,16,,[],37,Yes,Teşekkürler,4,1,Male,Türkçe,Chrome,Mac,900,1440,3.89315,
930,condition1,green,yeşil,frog_spotted_green,frog,[0.14],3334,17,,[],37,Yes,Teşekkürler,4,1,Male,Türkçe,Chrome,Mac,900,1440,3.89315,
930,condition1,wet,ıslak,shorts_wet_green,shorts,[0.14],3307,18,,[],37,Yes,Teşekkürler,4,1,Male,Türkçe,Chrome,Mac,900,1440,3.89315,
930,condition1,round,yuvarlak,earring_big_round,earring,[0.04],4007,19,,[],37,Yes,Teşekkürler,4,1,Male,Türkçe,Chrome,Mac,900,1440,3.89315,
930,condition1,sad,mutsuz,woman_old_sad,woman,[0.81],3714,20,,[],37,Yes,Teşekkürler,4,1,Male,Türkçe,Chrome,Mac,900,1440,3.89315,
930,condition1,matte,mat,nails_black_matte,nails,[0.49],6944,21,,[],37,Yes,Teşekkürler,4,1,Male,Türkçe,Chrome,Mac,900,1440,3.89315,
930,condition1,short,kısa,pencil_short_black,pencil,[0.8],3803,22,,[],37,Yes,Teşekkürler,4,1,Male,Türkçe,Chrome,Mac,900,1440,3.89315,
930,condition1,clean,temiz,spoon_metal_clean,spoon,[0.51],4128,23,,[],37,Yes,Teşekkürler,4,1,Male,Türkçe,Chrome,Mac,900,1440,3.89315,
930,condition1,old,yaşlı,man_old_bearded,man,[0.83],2235,24,,[],37,Yes,Teşekkürler,4,1,Male,Türkçe,Chrome,Mac,900,1440,3.89315,
930,condition1,blond,sarı,hair_curly_blonde,hair,[0.26],4321,25,,[],37,Yes,Teşekkürler,4,1,Male,Türkçe,Chrome,Mac,900,1440,3.89315,
930,condition1,dirty,kirli,spoon_metal_dirty,spoon,[0.17],2398,26,,[],37,Yes,Teşekkürler,4,1,Male,Türkçe,Chrome,Mac,900,1440,3.89315,
930,condition1,skinny,zayıf,woman2_happy_skinny,woman,[0.78],2361,27,,[],37,Yes,Teşekkürler,4,1,Male,Türkçe,Chrome,Mac,900,1440,3.89315,
930,condition1,brown,kahverengi,hair_curly_brown,hair,[0.18],2668,28,,[],37,Yes,Teşekkürler,4,1,Male,Türkçe,Chrome,Mac,900,1440,3.89315,
930,condition1,open,açık,box_open_cardboard,box,[0.02],2958,29,,[],37,Yes,Teşekkürler,4,1,Male,Türkçe,Chrome,Mac,900,1440,3.89315,
930,condition1,big,büyük,bottle_glass_big,bottle,[0.8],2554,30,,[],37,Yes,Teşekkürler,4,1,Male,Türkçe,Chrome,Mac,900,1440,3.89315,
930,condition1,black,siyah,nails_black_glossy,nails,[0.1],2992,31,,[],37,Yes,Teşekkürler,4,1,Male,Türkçe,Chrome,Mac,900,1440,3.89315,
930,condition1,long,uzun,pencil_long_black,pencil,[0.83],2450,32,,[],37,Yes,Teşekkürler,4,1,Male,Türkçe,Chrome,Mac,900,1440,3.89315,
930,condition1,fat,şişman,woman2_happy_fat,woman,[0.81],2180,33,,[],37,Yes,Teşekkürler,4,1,Male,Türkçe,Chrome,Mac,900,1440,3.89315,
930,condition1,low,alçak,table_metal_low,table,[0.79],2504,34,,[],37,Yes,Teşekkürler,4,1,Male,Türkçe,Chrome,Mac,900,1440,3.89315,
930,condition1,metal,metal,spoon_metal_clean,spoon,[0.01],2600,35,,[],37,Yes,Teşekkürler,4,1,Male,Türkçe,Chrome,Mac,900,1440,3.89315,
930,condition1,high,yüksek,table_metal_high,table,[0.81],2613,36,,[],37,Yes,Teşekkürler,4,1,Male,Türkçe,Chrome,Mac,900,1440,3.89315,
930,condition1,glass,cam,bottle_glass_big,bottle,[0.02],2508,37,,[],37,Yes,Teşekkürler,4,1,Male,Türkçe,Chrome,Mac,900,1440,3.89315,
930,condition1,mustache-touting,bıyıklı,man2_mustached_glassed,man,[0.01],2545,38,,[],37,Yes,Teşekkürler,4,1,Male,Türkçe,Chrome,Mac,900,1440,3.89315,
930,condition1,blue,mavi,pencil_long_blue,pencil,[0.23],3334,39,,[],37,Yes,Teşekkürler,4,1,Male,Türkçe,Chrome,Mac,900,1440,3.89315,
930,condition1,hat-wearing,şapkalı,man2_bearded_hatted,man,[0.01],2276,40,,[],37,Yes,Teşekkürler,4,1,Male,Türkçe,Chrome,Mac,900,1440,3.89315,
930,condition1,rectangular,dikdörtgen,picture_bw_rectangular,picture,[0.08],2418,41,,[],37,Yes,Teşekkürler,4,1,Male,Türkçe,Chrome,Mac,900,1440,3.89315,
930,condition1,colored,renkli,picture_colored_rectangular,picture,[0],2878,42,,[],37,Yes,Teşekkürler,4,1,Male,Türkçe,Chrome,Mac,900,1440,3.89315,
930,condition1,cardboard,karton,box_closed_cardboard,box,[0.01],4033,43,,[],37,Yes,Teşekkürler,4,1,Male,Türkçe,Chrome,Mac,900,1440,3.89315,
930,condition1,striped,çizgili,frog_striped_green,frog,[0.01],2628,44,,[],37,Yes,Teşekkürler,4,1,Male,Türkçe,Chrome,Mac,900,1440,3.89315,
930,condition1,glossy,parlak,nails_black_glossy,nails,[0.5],3792,45,,[],37,Yes,Teşekkürler,4,1,Male,Türkçe,Chrome,Mac,900,1440,3.89315,
930,condition1,bearded,sakallı,man_old_bearded,man,[0.02],3292,46,,[],37,Yes,Teşekkürler,4,1,Male,Türkçe,Chrome,Mac,900,1440,3.89315,
930,condition1,curly,kıvırcık,hair_curly_blonde,hair,[0.4],3558,47,,[],37,Yes,Teşekkürler,4,1,Male,Türkçe,Chrome,Mac,900,1440,3.89315,
930,condition1,triangular,üçgen,earring_big_triangular,earring,[0.03],2594,48,,[],37,Yes,Teşekkürler,4,1,Male,Türkçe,Chrome,Mac,900,1440,3.89315,
923,condition1,,,,beyaz,beyaz,0,1,bot_check,[],,Yes,,-1,-1,,,Chrome,Windows,768,1366,2.3958666666666666,
923,condition1,clean-shaven,sakalsız,man_old_cleanshaven,man,[0.99],9295,3,,[],,Yes,,-1,-1,,,Chrome,Windows,768,1366,2.3958666666666666,
923,condition1,curly,kıvırcık,hair_curly_blonde,hair,[1],2935,4,,[],,Yes,,-1,-1,,,Chrome,Windows,768,1366,2.3958666666666666,
923,condition1,high,yüksek,table_metal_high,table,[0],2504,5,,[],,Yes,,-1,-1,,,Chrome,Windows,768,1366,2.3958666666666666,
923,condition1,big,büyük,bottle_glass_big,bottle,[0],2088,6,,[],,Yes,,-1,-1,,,Chrome,Windows,768,1366,2.3958666666666666,
