workerid,proliferate.condition,adj,adj_tr,label,object,response,rt,slide_number_in_experiment,trial_type,error
926,condition1,,,,beyaz,beyaz,0,1,bot_check,
926,condition1,brown,kahverengi,hair_curly_brown,hair,[0.01],4069,3,,
926,condition1,striped,çizgili,frog_striped_green,frog,[0.01],4497,4,,
926,condition1,high,yüksek,table_metal_high,table,[0.99],2310,5,,
926,condition1,sad,mutsuz,woman_old_sad,woman,[0.99],2202,6,,
926,condition1,skinny,zayıf,woman2_happy_skinny,woman,[1],2127,7,,
926,condition1,colored,renkli,picture_colored_rectangular,picture,[0.77],7960,8,,
926,condition1,small,küçük,bottle_glass_small,bottle,[0.99],3031,9,,
926,condition1,green,yeşil,frog_spotted_green,frog,[0.04],3868,10,,
926,condition1,mustache-touting,bıyıklı,man2_mustached_glassed,man,[0],2551,11,,
926,condition1,fat,şişman,woman2_happy_fat,woman,[0.99],2206,12,,
926,condition1,blue,mavi,pencil_long_blue,pencil,[0.01],2651,13,,
926,condition1,spotted,benekli,frog_spotted_green,frog,[0.73],4721,14,,
926,condition1,glasses-wearing,gözlüklü,man2_bearded_glassed,man,[0.01],2551,15,,
926,condition1,black and white,siyah beyaz,picture_bw_rectangular,picture,[0.01],1870,16,,
926,condition1,short,kısa,pencil_short_black,pencil,[0.99],2049,17,,
926,condition1,round,yuvarlak,earring_big_round,earring,[0.25],7268,18,,
926,condition1,long,uzun,pencil_long_black,pencil,[0.99],3696,19,,
926,condition1,closed,kapalı,box_closed_cardboard,box,[0],3456,20,,
926,condition1,dirty,kirli,spoon_metal_dirty,spoon,[0.66],2791,21,,
926,condition1,glossy,parlak,nails_black_glossy,nails,[0.1],2859,22,,
926,condition1,hat-wearing,şapkalı,man2_bearded_hatted,man,[0],1717,23,,
926,condition1,low,alçak,table_metal_low,table,[0.99],2186,24,,
926,condition1,matte,mat,nails_black_matte,nails,[0.13],1982,25,,
926,condition1,plastic,plastik,bottle_plastic_big,bottle,[0],1490,26,,
926,condition1,square,kare,picture_bw_square,picture,[0.02],1730,27,,
926,condition1,triangular,üçgen,earring_big_triangular,earring,[0],1758,28,,
926,condition1,cardboard,karton,box_closed_cardboard,box,[0.01],2226,29,,
926,condition1,glass,cam,bottle_glass_big,bottle,[0],2342,30,,
926,condition1,curly,kıvırcık,hair_curly_blonde,hair,[0.16],3633,31,,
926,condition1,big,büyük,bottle_glass_big,bottle,[0.98],2411,32,,
926,condition1,old,yaşlı,man_old_bearded,man,[0.97],1878,33,,
926,condition1,rectangular,dikdörtgen,picture_bw_rectangular,picture,[0],3680,34,,
926,condition1,dry,kuru,shorts_dry_green,shorts,[0.08],3227,35,,
926,condition1,open,açık,box_open_cardboard,box,[0],1861,36,,
926,condition1,bearded,sakallı,man_old_bearded,man,[0],1706,37,,
926,condition1,clean-shaven,sakalsız,man_old_cleanshaven,man,[0],1462,38,,
926,condition1,young,genç,man_young_bearded,man,[0.98],2995,39,,
926,condition1,wooden,tahta,spoon_wooden_clean,spoon,[0.01],2903,40,,
926,condition1,happy,mutlu,woman_old_happy,woman,[0.98],3736,41,,
926,condition1,red,kırmızı,frog_spotted_red,frog,[0.02],1594,42,,
926,condition1,blond,sarı,hair_curly_blonde,hair,[0],1422,43,,
926,condition1,straight,düz,hair_straight_blond,hair,[0.15],4059,44,,
926,condition1,wet,ıslak,shorts_wet_green,shorts,[0.13],1873,45,,
926,condition1,metal,metal,spoon_metal_clean,spoon,[0],1977,46,,
926,condition1,clean,temiz,spoon_metal_clean,spoon,[0.8],2391,47,,
926,condition1,black,siyah,nails_black_glossy,nails,[0.01],2183,48,,
895,condition1,,,,beyaz,beyaz,0,1,bot_check,
895,condition1,triangular,üçgen,earring_big_triangular,earring,[0],12686,3,,
895,condition1,bearded,sakallı,man_old_bearded,man,[1],6684,4,,
895,condition1,plastic,plastik,bottle_plastic_big,bottle,[0],2264,5,,
895,condition1,happy,mutlu,woman_old_happy,woman,[1],2014,6,,
895,condition1,metal,metal,spoon_metal_clean,spoon,[0],2034,7,,
895,condition1,black and white,siyah beyaz,picture_bw_rectangular,picture,[0],3916,8,,
895,condition1,young,genç,man_young_bearded,man,[1],1682,9,,
895,condition1,rectangular,dikdörtgen,picture_bw_rectangular,picture,[0.03],2816,10,,
895,condition1,cardboard,karton,box_closed_cardboard,box,[0],2462,11,,
895,condition1,glasses-wearing,gözlüklü,man2_bearded_glassed,man,[0],1611,12,,
895,condition1,long,uzun,pencil_long_black,pencil,[0.67],2388,13,,
895,condition1,square,kare,picture_bw_square,picture,[0],1558,14,,
895,condition1,fat,şişman,woman2_happy_fat,woman,[0.67],2369,15,,
895,condition1,skinny,zayıf,woman2_happy_skinny,woman,[0.56],2563,16,,
895,condition1,round,yuvarlak,earring_big_round,earring,[0],2320,17,,
895,condition1,striped,çizgili,frog_striped_green,frog,[0],1756,18,,
895,condition1,straight,düz,hair_straight_blond,hair,[0.36],2966,19,,
895,condition1,hat-wearing,şapkalı,man2_bearded_hatted,man,[0.65],1930,20,,
895,condition1,clean,temiz,spoon_metal_clean,spoon,[0.8],2546,21,,
895,condition1,wooden,tahta,spoon_wooden_clean,spoon,[0.24],2399,22,,
895,condition1,big,büyük,bottle_glass_big,bottle,[0.41],4071,23,,
895,condition1,colored,renkli,picture_colored_rectangular,picture,[0.44],4006,24,,
895,condition1,open,açık,box_open_cardboard,box,[0.7],2772,25,,
895,condition1,blue,mavi,pencil_long_blue,pencil,[0],1894,26,,
895,condition1,curly,kıvırcık,hair_curly_blonde,hair,[0.64],1918,27,,
895,condition1,closed,kapalı,box_closed_cardboard,box,[0.72],2628,28,,
895,condition1,wet,ıslak,shorts_wet_green,shorts,[0.62],1885,29,,
895,condition1,brown,kahverengi,hair_curly_brown,hair,[0.16],2005,30,,
895,condition1,short,kısa,pencil_short_black,pencil,[0.21],1925,31,,
895,condition1,dry,kuru,shorts_dry_green,shorts,[0],2881,32,,
895,condition1,mustache-touting,bıyıklı,man2_mustached_glassed,man,[0.77],1980,33,,
895,condition1,glass,cam,bottle_glass_big,bottle,[0.12],2711,34,,
895,condition1,small,küçük,bottle_glass_small,bottle,[0.23],1686,35,,
895,condition1,matte,mat,nails_black_matte,nails,[0.37],1830,36,,
895,condition1,old,yaşlı,man_old_bearded,man,[0.72],1594,37,,
895,condition1,sad,mutsuz,woman_old_sad,woman,[1],2872,38,,
895,condition1,clean-shaven,sakalsız,man_old_cleanshaven,man,[0.8],1272,39,,
895,condition1,red,kırmızı,frog_spotted_red,frog,[0.61],1249,40,,
895,condition1,blond,sarı,hair_curly_blonde,hair,[0.5],1059,41,,
895,condition1,green,yeşil,frog_spotted_green,frog,[0],2506,42,,
895,condition1,glossy,parlak,nails_black_glossy,nails,[0.26],2388,43,,
895,condition1,black,siyah,nails_black_glossy,nails,[0.01],1577,44,,
895,condition1,spotted,benekli,frog_spotted_green,frog,[0.21],4439,45,,
895,condition1,high,yüksek,table_metal_high,table,[0.33],1749,46,,
895,condition1,dirty,kirli,spoon_metal_dirty,spoon,[0.83],2588,47,,
895,condition1,low,alçak,table_metal_low,table,[0.44],2927,48,,
924,condition1,,,,beyaz,beyaz,0,1,bot_check,
924,condition1,glasses-wearing,gözlüklü,man2_bearded_glassed,man,[0.64],7394,3,,
924,condition1,sad,mutsuz,woman_old_sad,woman,[0.79],20991,4,,
924,condition1,small,küçük,bottle_glass_small,bottle,[0.78],2799,5,,
924,condition1,blond,sarı,hair_curly_blonde,hair,[0.19],2040,6,,
924,condition1,rectangular,dikdörtgen,picture_bw_rectangular,picture,[0.02],6264,7,,
924,condition1,glass,cam,bottle_glass_big,bottle,[0.02],3120,8,,
924,condition1,bearded,sakallı,man_old_bearded,man,[0.65],2400,9,,
924,condition1,young,genç,man_young_bearded,man,[0.79],1860,10,,
924,condition1,fat,şişman,woman2_happy_fat,woman,[0.74],1348,11,,
924,condition1,dirty,kirli,spoon_metal_dirty,spoon,[0.77],1828,12,,
924,condition1,straight,düz,hair_straight_blond,hair,[0.29],2924,13,,
924,condition1,colored,renkli,picture_colored_rectangular,picture,[0.73],1464,14,,
924,condition1,low,alçak,table_metal_low,table,[0.66],2504,15,,
924,condition1,curly,kıvırcık,hair_curly_blonde,hair,[0.51],2576,16,,
924,condition1,square,kare,picture_bw_square,picture,[0.02],2024,17,,
924,condition1,happy,mutlu,woman_old_happy,woman,[0.84],2792,18,,
924,condition1,long,uzun,pencil_long_black,pencil,[0.66],3240,19,,
924,condition1,black and white,siyah beyaz,picture_bw_rectangular,picture,[0.03],2271,20,,
924,condition1,triangular,üçgen,earring_big_triangular,earring,[0.03],2992,21,,
924,condition1,mustache-touting,bıyıklı,man2_mustached_glassed,man,[0.49],2072,22,,
924,condition1,spotted,benekli,frog_spotted_green,frog,[0.47],6164,23,,
924,condition1,matte,mat,nails_black_matte,nails,[0.59],1340,24,,
924,condition1,metal,metal,spoon_metal_clean,spoon,[0.02],2805,25,,
924,condition1,striped,çizgili,frog_striped_green,frog,[0.21],3135,26,,
924,condition1,round,yuvarlak,earring_big_round,earring,[0.12],1840,27,,
924,condition1,clean-shaven,sakalsız,man_old_cleanshaven,man,[0.54],3280,28,,
924,condition1,open,açık,box_open_cardboard,box,[0.75],3016,29,,
924,condition1,big,büyük,bottle_glass_big,bottle,[0.93],2608,30,,
924,condition1,old,yaşlı,man_old_bearded,man,[0.78],2416,31,,
924,condition1,green,yeşil,frog_spotted_green,frog,[0.15],2655,32,,
924,condition1,hat-wearing,şapkalı,man2_bearded_hatted,man,[0.03],3809,33,,
924,condition1,wet,ıslak,shorts_wet_green,shorts,[0.59],3119,34,,
924,condition1,high,yüksek,table_metal_high,table,[0.61],1640,35,,
924,condition1,short,kısa,pencil_short_black,pencil,[0.71],1383,36,,
924,condition1,blue,mavi,pencil_long_blue,pencil,[0.12],2000,37,,
924,condition1,glossy,parlak,nails_black_glossy,nails,[0.72],1584,38,,
924,condition1,black,siyah,nails_black_glossy,nails,[0.03],3936,39,,
924,condition1,plastic,plastik,bottle_plastic_big,bottle,[0.04],262144,40,,
924,condition1,wooden,tahta,spoon_wooden_clean,spoon,[0],1908,41,,
924,condition1,clean,temiz,spoon_metal_clean,spoon,[0.9],2272,42,,
924,condition1,closed,kapalı,box_closed_cardboard,box,[0.46],4311,43,,
924,condition1,cardboard,karton,box_closed_cardboard,box,[0.02],3921,44,,
924,condition1,dry,kuru,shorts_dry_green,shorts,[0.5],2984,45,,
924,condition1,skinny,zayıf,woman2_happy_skinny,woman,[0.66],2488,46,,
924,condition1,red,kırmızı,frog_spotted_red,frog,[0.03],5280,47,,
924,condition1,brown,kahverengi,hair_curly_brown,hair,[0.02],3456,48,,
899,condition1,,,,beyaz,Beyaz,0,1,bot_check,
899,condition1,wet,ıslak,shorts_wet_green,shorts,[0.7],16593,3,,
899,condition1,sad,mutsuz,woman_old_sad,woman,[0.97],4805,4,,
899,condition1,glasses-wearing,gözlüklü,man2_bearded_glassed,man,[0],6993,5,,
899,condition1,bearded,sakallı,man_old_bearded,man,[0.23],4544,6,,
899,condition1,high,yüksek,table_metal_high,table,[0.69],10710,7,,
899,condition1,plastic,plastik,bottle_plastic_big,bottle,[0],3379,8,,
899,condition1,wooden,tahta,spoon_wooden_clean,spoon,[0.05],2632,9,,
899,condition1,short,kısa,pencil_short_black,pencil,[0.68],3420,10,,
899,condition1,skinny,zayıf,woman2_happy_skinny,woman,[0.77],2813,11,,
899,condition1,metal,metal,spoon_metal_clean,spoon,[0],4191,12,,
899,condition1,black,siyah,nails_black_glossy,nails,[0.05],4132,13,,
899,condition1,dry,kuru,shorts_dry_green,shorts,[0.6],5146,14,,
899,condition1,brown,kahverengi,hair_curly_brown,hair,[0.12],4984,15,,
899,condition1,hat-wearing,şapkalı,man2_bearded_hatted,man,[0],4030,16,,
899,condition1,triangular,üçgen,earring_big_triangular,earring,[0],2731,17,,
899,condition1,clean-shaven,sakalsız,man_old_cleanshaven,man,[0.15],3565,18,,
899,condition1,low,alçak,table_metal_low,table,[0.73],2964,19,,
899,condition1,open,açık,box_open_cardboard,box,[0.67],2926,20,,
899,condition1,curly,kıvırcık,hair_curly_blonde,hair,[0.2],4526,21,,
899,condition1,glass,cam,bottle_glass_big,bottle,[0],2468,22,,
899,condition1,dirty,kirli,spoon_metal_dirty,spoon,[0.6],6608,23,,
899,condition1,small,küçük,bottle_glass_small,bottle,[0.67],4604,24,,
899,condition1,clean,temiz,spoon_metal_clean,spoon,[0.63],3080,25,,
899,condition1,closed,kapalı,box_closed_cardboard,box,[0.54],2630,26,,
899,condition1,matte,mat,nails_black_matte,nails,[0.15],2918,27,,
899,condition1,striped,çizgili,frog_striped_green,frog,[0],2184,28,,
899,condition1,happy,mutlu,woman_old_happy,woman,[1],3526,29,,
899,condition1,glossy,parlak,nails_black_glossy,nails,[0.24],4488,30,,
899,condition1,rectangular,dikdörtgen,picture_bw_rectangular,picture,[0.06],3032,31,,
899,condition1,red,kırmızı,frog_spotted_red,frog,[0.01],2343,32,,
899,condition1,straight,düz,hair_straight_blond,hair,[0.21],3428,33,,
899,condition1,young,genç,man_young_bearded,man,[0.29],3961,34,,
899,condition1,blue,mavi,pencil_long_blue,pencil,[0.23],3813,35,,
899,condition1,green,yeşil,frog_spotted_green,frog,[0.17],2227,36,,
899,condition1,spotted,benekli,frog_spotted_green,frog,[0.06],2421,37,,
899,condition1,big,büyük,bottle_glass_big,bottle,[0.33],6351,38,,
899,condition1,blond,sarı,hair_curly_blonde,hair,[0.15],5345,39,,
899,condition1,black and white,siyah beyaz,picture_bw_rectangular,picture,[0.04],6422,40,,
899,condition1,old,yaşlı,man_old_bearded,man,[0.35],3976,41,,
899,condition1,cardboard,karton,box_closed_cardboard,box,[0.09],2468,42,,
899,condition1,square,kare,picture_bw_square,picture,[0.05],3172,43,,
899,condition1,long,uzun,pencil_long_black,pencil,[0.65],4032,44,,
899,condition1,round,yuvarlak,earring_big_round,earring,[0.03],3820,45,,
899,condition1,mustache-touting,bıyıklı,man2_mustached_glassed,man,[0.08],3234,46,,
899,condition1,colored,renkli,picture_colored_rectangular,picture,[0.14],5686,47,,
899,condition1,fat,şişman,woman2_happy_fat,woman,[0.62],5971,48,,
900,condition1,,,,beyaz,beyaz,0,1,bot_check,
900,condition1,big,büyük,bottle_glass_big,bottle,[0],24613,3,,
900,condition1,blue,mavi,pencil_long_blue,pencil,[0.32],4966,4,,
900,condition1,green,yeşil,frog_spotted_green,frog,[0.32],2377,5,,
900,condition1,brown,kahverengi,hair_curly_brown,hair,[0.3],1486,6,,
900,condition1,small,küçük,bottle_glass_small,bottle,[0],2368,7,,
900,condition1,dry,kuru,shorts_dry_green,shorts,[0.39],4416,8,,
900,condition1,short,kısa,pencil_short_black,pencil,[0.29],6289,9,,
900,condition1,long,uzun,pencil_long_black,pencil,[0.17],1544,10,,
900,condition1,hat-wearing,şapkalı,man2_bearded_hatted,man,[0],2400,11,,
900,condition1,rectangular,dikdörtgen,picture_bw_rectangular,picture,[0],1598,12,,
900,condition1,wooden,tahta,spoon_wooden_clean,spoon,[0],3352,13,,
900,condition1,round,yuvarlak,earring_big_round,earring,[0],1512,14,,
900,condition1,colored,renkli,picture_colored_rectangular,picture,[0.51],3328,15,,
900,condition1,cardboard,karton,box_closed_cardboard,box,[0],2016,16,,
900,condition1,happy,mutlu,woman_old_happy,woman,[1],3521,17,,
900,condition1,mustache-touting,bıyıklı,man2_mustached_glassed,man,[0],1390,18,,
900,condition1,striped,çizgili,frog_striped_green,frog,[0],3224,19,,
900,condition1,clean-shaven,sakalsız,man_old_cleanshaven,man,[0.13],3082,20,,
900,condition1,clean,temiz,spoon_metal_clean,spoon,[0.66],2894,21,,
900,condition1,young,genç,man_young_bearded,man,[0.36],2608,22,,
900,condition1,glass,cam,bottle_glass_big,bottle,[0],1512,23,,
900,condition1,wet,ıslak,shorts_wet_green,shorts,[0.2],4329,24,,
900,condition1,old,yaşlı,man_old_bearded,man,[0.21],2393,25,,
900,condition1,square,kare,picture_bw_square,picture,[0],2638,26,,
900,condition1,black,siyah,nails_black_glossy,nails,[0],4321,27,,
900,condition1,skinny,zayıf,woman2_happy_skinny,woman,[0.75],4087,28,,
900,condition1,curly,kıvırcık,hair_curly_blonde,hair,[0.25],2576,29,,
900,condition1,plastic,plastik,bottle_plastic_big,bottle,[0],1495,30,,
900,condition1,straight,düz,hair_straight_blond,hair,[0],2328,31,,
900,condition1,fat,şişman,woman2_happy_fat,woman,[0.7],2184,32,,
900,condition1,bearded,sakallı,man_old_bearded,man,[0.34],6993,33,,
900,condition1,triangular,üçgen,earring_big_triangular,earring,[0],1352,34,,
900,condition1,red,kırmızı,frog_spotted_red,frog,[0.28],2118,35,,
900,condition1,glossy,parlak,nails_black_glossy,nails,[0.72],3176,36,,
900,condition1,black and white,siyah beyaz,picture_bw_rectangular,picture,[0],1875,37,,
900,condition1,blond,sarı,hair_curly_blonde,hair,[0.29],2223,38,,
900,condition1,sad,mutsuz,woman_old_sad,woman,[1],1792,39,,
900,condition1,spotted,benekli,frog_spotted_green,frog,[0.17],1710,40,,
900,condition1,open,açık,box_open_cardboard,box,[0.19],2359,41,,
900,condition1,matte,mat,nails_black_matte,nails,[0.32],1721,42,,
900,condition1,glasses-wearing,gözlüklü,man2_bearded_glassed,man,[0],1878,43,,
900,condition1,dirty,kirli,spoon_metal_dirty,spoon,[0.75],1633,44,,
900,condition1,closed,kapalı,box_closed_cardboard,box,[0.11],3479,45,,
900,condition1,metal,metal,spoon_metal_clean,spoon,[0.15],1696,46,,
900,condition1,high,yüksek,table_metal_high,table,[0.27],14113,47,,
900,condition1,low,alçak,table_metal_low,table,[0.68],5168,48,,
947,condition1,,,,beyaz,beyaz,0,1,bot_check,
947,condition1,black,siyah,nails_black_glossy,nails,[0],4302,3,,
947,condition1,skinny,zayıf,woman2_happy_skinny,woman,[0.31],12985,4,,
947,condition1,glass,cam,bottle_glass_big,bottle,[0],3167,5,,
947,condition1,triangular,üçgen,earring_big_triangular,earring,[0.01],2456,6,,
947,condition1,fat,şişman,woman2_happy_fat,woman,[0.33],2582,7,,
947,condition1,clean,temiz,spoon_metal_clean,spoon,[0.55],4793,8,,
947,condition1,blue,mavi,pencil_long_blue,pencil,[0.01],2989,9,,
947,condition1,open,açık,box_open_cardboard,box,[0],2566,10,,
947,condition1,long,uzun,pencil_long_black,pencil,[0.64],5219,11,,
947,condition1,dirty,kirli,spoon_metal_dirty,spoon,[0.36],2522,12,,
947,condition1,sad,mutsuz,woman_old_sad,woman,[0.88],2624,13,,
947,condition1,curly,kıvırcık,hair_curly_blonde,hair,[0.11],4886,14,,
947,condition1,mustache-touting,bıyıklı,man2_mustached_glassed,man,[0.02],3184,15,,
947,condition1,metal,metal,spoon_metal_clean,spoon,[0.01],4878,16,,
947,condition1,small,küçük,bottle_glass_small,bottle,[0.58],3970,17,,
947,condition1,closed,kapalı,box_closed_cardboard,box,[0.01],6215,18,,
947,condition1,green,yeşil,frog_spotted_green,frog,[0.01],2414,19,,
947,condition1,wet,ıslak,shorts_wet_green,shorts,[0.14],2930,20,,
947,condition1,colored,renkli,picture_colored_rectangular,picture,[0.35],5913,21,,
947,condition1,old,yaşlı,man_old_bearded,man,[0.68],5331,22,,
947,condition1,clean-shaven,sakalsız,man_old_cleanshaven,man,[0.04],2473,23,,
947,condition1,blond,sarı,hair_curly_blonde,hair,[0.06],3581,24,,
947,condition1,plastic,plastik,bottle_plastic_big,bottle,[0.01],3788,25,,
947,condition1,young,genç,man_young_bearded,man,[0.7],4268,26,,
947,condition1,high,yüksek,table_metal_high,table,[0.62],5128,27,,
947,condition1,wooden,tahta,spoon_wooden_clean,spoon,[0.01],3196,28,,
947,condition1,dry,kuru,shorts_dry_green,shorts,[0.04],2890,29,,
947,condition1,rectangular,dikdörtgen,picture_bw_rectangular,picture,[0],2220,30,,
947,condition1,matte,mat,nails_black_matte,nails,[0.62],3234,31,,
947,condition1,spotted,benekli,frog_spotted_green,frog,[0],4476,32,,
947,condition1,square,kare,picture_bw_square,picture,[0.03],1870,33,,
947,condition1,happy,mutlu,woman_old_happy,woman,[1],4586,34,,
947,condition1,straight,düz,hair_straight_blond,hair,[0.01],3071,35,,
947,condition1,glossy,parlak,nails_black_glossy,nails,[0.03],3130,36,,
947,condition1,big,büyük,bottle_glass_big,bottle,[0.6],4656,37,,
947,condition1,glasses-wearing,gözlüklü,man2_bearded_glassed,man,[0],2420,38,,
947,condition1,cardboard,karton,box_closed_cardboard,box,[0],2056,39,,
947,condition1,black and white,siyah beyaz,picture_bw_rectangular,picture,[0.03],2439,40,,
947,condition1,round,yuvarlak,earring_big_round,earring,[0],3788,41,,
947,condition1,short,kısa,pencil_short_black,pencil,[0.68],2822,42,,
947,condition1,striped,çizgili,frog_striped_green,frog,[0.01],2627,43,,
947,condition1,red,kırmızı,frog_spotted_red,frog,[0.01],2070,44,,
947,condition1,low,alçak,table_metal_low,table,[0.05],2034,45,,
947,condition1,bearded,sakallı,man_old_bearded,man,[0.03],3206,46,,
947,condition1,hat-wearing,şapkalı,man2_bearded_hatted,man,[0.02],1992,47,,
947,condition1,brown,kahverengi,hair_curly_brown,hair,[0],2088,48,,
823,condition1,,,,beyaz,beyaz,0,1,bot_check,
823,condition1,mustache-touting,bıyıklı,man2_mustached_glassed,man,[0],7125,3,,
823,condition1,hat-wearing,şapkalı,man2_bearded_hatted,man,[0],2079,4,,
823,condition1,fat,şişman,woman2_happy_fat,woman,[0.64],12923,5,,
823,condition1,happy,mutlu,woman_old_happy,woman,[0.77],2470,6,,
823,condition1,sad,mutsuz,woman_old_sad,woman,[0.78],2356,7,,
823,condition1,young,genç,man_young_bearded,man,[0.01],2229,8,,
823,condition1,dry,kuru,shorts_dry_green,shorts,[0.01],2160,9,,
823,condition1,striped,çizgili,frog_striped_green,frog,[0.03],1916,10,,
823,condition1,wet,ıslak,shorts_wet_green,shorts,[0.02],2379,11,,
823,condition1,low,alçak,table_metal_low,table,[0.03],2083,12,,
823,condition1,blue,mavi,pencil_long_blue,pencil,[0],1968,13,,
823,condition1,glossy,parlak,nails_black_glossy,nails,[0.14],3861,14,,
823,condition1,blond,sarı,hair_curly_blonde,hair,[0.01],2062,15,,
823,condition1,straight,düz,hair_straight_blond,hair,[0.03],2099,16,,
823,condition1,open,açık,box_open_cardboard,box,[0.02],2197,17,,
823,condition1,bearded,sakallı,man_old_bearded,man,[0.01],1888,18,,
823,condition1,rectangular,dikdörtgen,picture_bw_rectangular,picture,[0.01],1996,19,,
823,condition1,spotted,benekli,frog_spotted_green,frog,[0.03],1806,20,,
823,condition1,brown,kahverengi,hair_curly_brown,hair,[0.03],1962,21,,
823,condition1,glasses-wearing,gözlüklü,man2_bearded_glassed,man,[0.01],1866,22,,
823,condition1,old,yaşlı,man_old_bearded,man,[0.48],7032,23,,
823,condition1,big,büyük,bottle_glass_big,bottle,[0.17],3330,24,,
823,condition1,glass,cam,bottle_glass_big,bottle,[0.02],2037,25,,
823,condition1,long,uzun,pencil_long_black,pencil,[0.55],2957,26,,
823,condition1,skinny,zayıf,woman2_happy_skinny,woman,[0.72],3366,27,,
823,condition1,triangular,üçgen,earring_big_triangular,earring,[0.03],2084,28,,
823,condition1,metal,metal,spoon_metal_clean,spoon,[0.02],1882,29,,
823,condition1,high,yüksek,table_metal_high,table,[0.5],2082,30,,
823,condition1,clean,temiz,spoon_metal_clean,spoon,[0.79],3439,31,,
823,condition1,square,kare,picture_bw_square,picture,[0.01],1967,32,,
823,condition1,red,kırmızı,frog_spotted_red,frog,[0.02],1659,33,,
823,condition1,curly,kıvırcık,hair_curly_blonde,hair,[0.12],2896,34,,
823,condition1,clean-shaven,sakalsız,man_old_cleanshaven,man,[0.01],1784,35,,
823,condition1,plastic,plastik,bottle_plastic_big,bottle,[0.02],2080,36,,
823,condition1,black and white,siyah beyaz,picture_bw_rectangular,picture,[0.01],2087,37,,
823,condition1,closed,kapalı,box_closed_cardboard,box,[0.03],1918,38,,
823,condition1,cardboard,karton,box_closed_cardboard,box,[0.02],1657,39,,
823,condition1,colored,renkli,picture_colored_rectangular,picture,[0.2],4087,40,,
823,condition1,wooden,tahta,spoon_wooden_clean,spoon,[0.01],2067,41,,
823,condition1,short,kısa,pencil_short_black,pencil,[0.61],2459,42,,
823,condition1,small,küçük,bottle_glass_small,bottle,[0.56],2280,43,,
823,condition1,green,yeşil,frog_spotted_green,frog,[0.01],2243,44,,
823,condition1,matte,mat,nails_black_matte,nails,[0.16],2957,45,,
823,condition1,round,yuvarlak,earring_big_round,earring,[0.18],2560,46,,
823,condition1,black,siyah,nails_black_glossy,nails,[0.01],1772,47,,
823,condition1,dirty,kirli,spoon_metal_dirty,spoon,[0.59],2239,48,,
893,condition1,,,,beyaz,BEYAZ,0,1,bot_check,
893,condition1,blond,sarı,hair_curly_blonde,hair,[0.48],7578,3,,
893,condition1,curly,kıvırcık,hair_curly_blonde,hair,[0.56],5203,4,,
893,condition1,bearded,sakallı,man_old_bearded,man,[0.89],11825,5,,
893,condition1,glass,cam,bottle_glass_big,bottle,[0.11],5569,6,,
893,condition1,small,küçük,bottle_glass_small,bottle,[0.47],3552,7,,
893,condition1,long,uzun,pencil_long_black,pencil,[0.68],15488,8,,
893,condition1,black,siyah,nails_black_glossy,nails,[0.26],4025,9,,
893,condition1,happy,mutlu,woman_old_happy,woman,[1],8952,10,,
893,condition1,square,kare,picture_bw_square,picture,[0],5014,11,,
893,condition1,cardboard,karton,box_closed_cardboard,box,[0.02],4703,12,,
893,condition1,brown,kahverengi,hair_curly_brown,hair,[0.53],3560,13,,
893,condition1,clean,temiz,spoon_metal_clean,spoon,[0.7],8888,14,,
893,condition1,high,yüksek,table_metal_high,table,[0.26],4557,15,,
893,condition1,black and white,siyah beyaz,picture_bw_rectangular,picture,[0.23],5103,16,,
893,condition1,clean-shaven,sakalsız,man_old_cleanshaven,man,[1],5385,17,,
893,condition1,spotted,benekli,frog_spotted_green,frog,[0.97],4119,18,,
893,condition1,closed,kapalı,box_closed_cardboard,box,[0.49],3516,19,,
893,condition1,striped,çizgili,frog_striped_green,frog,[0.15],6893,20,,
893,condition1,open,açık,box_open_cardboard,box,[0.5],3379,21,,
893,condition1,dirty,kirli,spoon_metal_dirty,spoon,[0.57],4276,22,,
893,condition1,triangular,üçgen,earring_big_triangular,earring,[0.07],5558,23,,
893,condition1,round,yuvarlak,earring_big_round,earring,[0.21],4707,24,,
893,condition1,fat,şişman,woman2_happy_fat,woman,[0.99],5094,25,,
893,condition1,green,yeşil,frog_spotted_green,frog,[0.49],2725,26,,
893,condition1,skinny,zayıf,woman2_happy_skinny,woman,[1],5002,27,,
893,condition1,dry,kuru,shorts_dry_green,shorts,[0.18],5021,28,,
893,condition1,rectangular,dikdörtgen,picture_bw_rectangular,picture,[0],3285,29,,
893,condition1,straight,düz,hair_straight_blond,hair,[0],4012,30,,
893,condition1,red,kırmızı,frog_spotted_red,frog,[0.17],4255,31,,
893,condition1,low,alçak,table_metal_low,table,[0.23],4913,32,,
893,condition1,matte,mat,nails_black_matte,nails,[0.1],3525,33,,
893,condition1,metal,metal,spoon_metal_clean,spoon,[0],5049,34,,
893,condition1,mustache-touting,bıyıklı,man2_mustached_glassed,man,[1],2973,35,,
893,condition1,plastic,plastik,bottle_plastic_big,bottle,[0.49],9172,36,,
893,condition1,glasses-wearing,gözlüklü,man2_bearded_glassed,man,[1],4943,37,,
893,condition1,colored,renkli,picture_colored_rectangular,picture,[0.33],2998,38,,
893,condition1,wooden,tahta,spoon_wooden_clean,spoon,[0.3],4525,39,,
893,condition1,glossy,parlak,nails_black_glossy,nails,[0.24],3692,40,,
893,condition1,blue,mavi,pencil_long_blue,pencil,[0.1],2924,41,,
893,condition1,old,yaşlı,man_old_bearded,man,[0.98],4801,42,,
893,condition1,young,genç,man_young_bearded,man,[1],7913,43,,
893,condition1,big,büyük,bottle_glass_big,bottle,[0.16],3533,44,,
893,condition1,short,kısa,pencil_short_black,pencil,[0.76],5654,45,,
893,condition1,sad,mutsuz,woman_old_sad,woman,[1],5635,46,,
893,condition1,wet,ıslak,shorts_wet_green,shorts,[0],4276,47,,
893,condition1,hat-wearing,şapkalı,man2_bearded_hatted,man,[0.78],3473,48,,
916,condition1,,,,beyaz,beyaz,0,1,bot_check,
916,condition1,round,yuvarlak,earring_big_round,earring,[0.27],5070,3,,
916,condition1,green,yeşil,frog_spotted_green,frog,[0.53],1547,4,,
916,condition1,straight,düz,hair_straight_blond,hair,[0.41],1177,5,,
916,condition1,curly,kıvırcık,hair_curly_blonde,hair,[0.6],1209,6,,
916,condition1,dirty,kirli,spoon_metal_dirty,spoon,[0.42],1299,7,,
916,condition1,metal,metal,spoon_metal_clean,spoon,[0.5],1148,8,,
916,condition1,big,büyük,bottle_glass_big,bottle,[0.42],1494,9,,
916,condition1,glasses-wearing,gözlüklü,man2_bearded_glassed,man,[0.58],1588,10,,
916,condition1,happy,mutlu,woman_old_happy,woman,[0.77],4014,11,,
916,condition1,plastic,plastik,bottle_plastic_big,bottle,[0.23],2366,12,,
916,condition1,skinny,zayıf,woman2_happy_skinny,woman,[0.8],2569,13,,
916,condition1,old,yaşlı,man_old_bearded,man,[0.47],2594,14,,
916,condition1,clean,temiz,spoon_metal_clean,spoon,[0.5],2657,15,,
916,condition1,long,uzun,pencil_long_black,pencil,[0.51],1555,16,,
916,condition1,glossy,parlak,nails_black_glossy,nails,[0.79],2417,17,,
916,condition1,glass,cam,bottle_glass_big,bottle,[0.49],1436,18,,
916,condition1,bearded,sakallı,man_old_bearded,man,[0.65],1477,19,,
916,condition1,rectangular,dikdörtgen,picture_bw_rectangular,picture,[0.75],1824,20,,
916,condition1,low,alçak,table_metal_low,table,[0.21],2061,21,,
916,condition1,clean-shaven,sakalsız,man_old_cleanshaven,man,[0.67],1338,22,,
916,condition1,dry,kuru,shorts_dry_green,shorts,[0.44],2685,23,,
916,condition1,red,kırmızı,frog_spotted_red,frog,[0.61],1754,24,,
916,condition1,blue,mavi,pencil_long_blue,pencil,[0.53],1358,25,,
916,condition1,spotted,benekli,frog_spotted_green,frog,[0.68],1833,26,,
916,condition1,matte,mat,nails_black_matte,nails,[0.77],2012,27,,
916,condition1,blond,sarı,hair_curly_blonde,hair,[0.36],2200,28,,
916,condition1,black and white,siyah beyaz,picture_bw_rectangular,picture,[0.31],1376,29,,
916,condition1,hat-wearing,şapkalı,man2_bearded_hatted,man,[0.35],1447,30,,
916,condition1,mustache-touting,bıyıklı,man2_mustached_glassed,man,[0.5],1349,31,,
916,condition1,high,yüksek,table_metal_high,table,[0.51],2494,32,,
916,condition1,square,kare,picture_bw_square,picture,[0.32],2162,33,,
916,condition1,young,genç,man_young_bearded,man,[0.74],2004,34,,
916,condition1,black,siyah,nails_black_glossy,nails,[0.34],1980,35,,
916,condition1,short,kısa,pencil_short_black,pencil,[0.32],2102,36,,
916,condition1,wooden,tahta,spoon_wooden_clean,spoon,[0.63],2280,37,,
916,condition1,triangular,üçgen,earring_big_triangular,earring,[0.31],2566,38,,
916,condition1,striped,çizgili,frog_striped_green,frog,[0.54],1417,39,,
916,condition1,fat,şişman,woman2_happy_fat,woman,[0.45],1506,40,,
916,condition1,sad,mutsuz,woman_old_sad,woman,[0.49],1764,41,,
916,condition1,colored,renkli,picture_colored_rectangular,picture,[0.29],1576,42,,
916,condition1,small,küçük,bottle_glass_small,bottle,[0.55],1168,43,,
916,condition1,wet,ıslak,shorts_wet_green,shorts,[0.56],1188,44,,
916,condition1,closed,kapalı,box_closed_cardboard,box,[0.66],1872,45,,
916,condition1,brown,kahverengi,hair_curly_brown,hair,[0.5],1229,46,,
916,condition1,cardboard,karton,box_closed_cardboard,box,[0.65],1267,47,,
916,condition1,open,açık,box_open_cardboard,box,[0.37],1180,48,,
942,condition1,,,,beyaz,Beyaz,0,1,bot_check,
942,condition1,glossy,parlak,nails_black_glossy,nails,[0.89],35676,3,,
942,condition1,wooden,tahta,spoon_wooden_clean,spoon,[0.01],6688,4,,
942,condition1,cardboard,karton,box_closed_cardboard,box,[0.01],3192,5,,
942,condition1,big,büyük,bottle_glass_big,bottle,[0.92],2984,6,,
942,condition1,low,alçak,table_metal_low,table,[1],2807,7,,
942,condition1,clean,temiz,spoon_metal_clean,spoon,[0.97],6663,8,,
942,condition1,fat,şişman,woman2_happy_fat,woman,[0.59],4553,9,,
942,condition1,black and white,siyah beyaz,picture_bw_rectangular,picture,[0.58],3104,10,,
942,condition1,blond,sarı,hair_curly_blonde,hair,[0],46134,11,,
942,condition1,matte,mat,nails_black_matte,nails,[0.8],10633,12,,
942,condition1,high,yüksek,table_metal_high,table,[0.9],2392,13,,
942,condition1,dry,kuru,shorts_dry_green,shorts,[0.92],5279,14,,
942,condition1,plastic,plastik,bottle_plastic_big,bottle,[0.02],2184,15,,
942,condition1,square,kare,picture_bw_square,picture,[0.54],3480,16,,
942,condition1,wet,ıslak,shorts_wet_green,shorts,[0.8],4007,17,,
942,condition1,young,genç,man_young_bearded,man,[0.02],5560,18,,
942,condition1,straight,düz,hair_straight_blond,hair,[0.04],1984,19,,
942,condition1,green,yeşil,frog_spotted_green,frog,[0.21],12464,20,,
942,condition1,metal,metal,spoon_metal_clean,spoon,[0.01],2592,21,,
942,condition1,long,uzun,pencil_long_black,pencil,[0.76],2288,22,,
942,condition1,mustache-touting,bıyıklı,man2_mustached_glassed,man,[0.76],3888,23,,
942,condition1,closed,kapalı,box_closed_cardboard,box,[0.66],1648,24,,
942,condition1,brown,kahverengi,hair_curly_brown,hair,[0.04],4496,25,,
942,condition1,glass,cam,bottle_glass_big,bottle,[0],2216,26,,
942,condition1,short,kısa,pencil_short_black,pencil,[0.77],1879,27,,
942,condition1,triangular,üçgen,earring_big_triangular,earring,[0.67],1785,28,,
942,condition1,black,siyah,nails_black_glossy,nails,[0.69],1840,29,,
942,condition1,sad,mutsuz,woman_old_sad,woman,[0.72],3719,30,,
942,condition1,blue,mavi,pencil_long_blue,pencil,[0.63],1991,31,,
942,condition1,old,yaşlı,man_old_bearded,man,[0.6],2136,32,,
942,condition1,red,kırmızı,frog_spotted_red,frog,[0.55],5751,33,,
942,condition1,rectangular,dikdörtgen,picture_bw_rectangular,picture,[0.53],2225,34,,
942,condition1,hat-wearing,şapkalı,man2_bearded_hatted,man,[0.59],18296,35,,
942,condition1,colored,renkli,picture_colored_rectangular,picture,[0.69],1503,36,,
942,condition1,clean-shaven,sakalsız,man_old_cleanshaven,man,[0.33],4640,37,,
942,condition1,skinny,zayıf,woman2_happy_skinny,woman,[0.56],2673,38,,
942,condition1,happy,mutlu,woman_old_happy,woman,[0.72],5559,39,,
942,condition1,dirty,kirli,spoon_metal_dirty,spoon,[0.61],2167,40,,
942,condition1,spotted,benekli,frog_spotted_green,frog,[0.58],4432,41,,
942,condition1,open,açık,box_open_cardboard,box,[0.53],2032,42,,
942,condition1,glasses-wearing,gözlüklü,man2_bearded_glassed,man,[0.65],2808,43,,
942,condition1,striped,çizgili,frog_striped_green,frog,[0.68],1713,44,,
942,condition1,round,yuvarlak,earring_big_round,earring,[0.68],2160,45,,
942,condition1,bearded,sakallı,man_old_bearded,man,[0.29],3887,46,,
942,condition1,small,küçük,bottle_glass_small,bottle,[0.62],5776,47,,
942,condition1,curly,kıvırcık,hair_curly_blonde,hair,[0.46],3625,48,,
896,condition1,,,,beyaz,Beyaz,0,1,bot_check,
896,condition1,plastic,plastik,bottle_plastic_big,bottle,[0],10288,3,,
896,condition1,green,yeşil,frog_spotted_green,frog,[0.83],2873,4,,
896,condition1,big,büyük,bottle_glass_big,bottle,[0.66],3511,5,,
896,condition1,blue,mavi,pencil_long_blue,pencil,[0.73],2133,6,,
896,condition1,colored,renkli,picture_colored_rectangular,picture,[0.81],3828,7,,
896,condition1,glasses-wearing,gözlüklü,man2_bearded_glassed,man,[0.75],3820,8,,
896,condition1,round,yuvarlak,earring_big_round,earring,[0.68],3608,9,,
896,condition1,sad,mutsuz,woman_old_sad,woman,[0.85],2262,10,,
896,condition1,curly,kıvırcık,hair_curly_blonde,hair,[0.31],2566,11,,
896,condition1,clean-shaven,sakalsız,man_old_cleanshaven,man,[0.23],2876,12,,
896,condition1,metal,metal,spoon_metal_clean,spoon,[0],2977,13,,
896,condition1,glossy,parlak,nails_black_glossy,nails,[0.76],2065,14,,
896,condition1,triangular,üçgen,earring_big_triangular,earring,[0.09],5130,15,,
896,condition1,high,yüksek,table_metal_high,table,[0.38],2985,16,,
896,condition1,brown,kahverengi,hair_curly_brown,hair,[0.72],3138,17,,
896,condition1,mustache-touting,bıyıklı,man2_mustached_glassed,man,[0.17],2539,18,,
896,condition1,short,kısa,pencil_short_black,pencil,[0.43],5515,19,,
896,condition1,happy,mutlu,woman_old_happy,woman,[0.84],2165,20,,
896,condition1,spotted,benekli,frog_spotted_green,frog,[0.15],4954,21,,
896,condition1,clean,temiz,spoon_metal_clean,spoon,[0.79],2313,22,,
896,condition1,striped,çizgili,frog_striped_green,frog,[0.15],2365,23,,
896,condition1,fat,şişman,woman2_happy_fat,woman,[0.39],6737,24,,
896,condition1,open,açık,box_open_cardboard,box,[0.43],6696,25,,
896,condition1,glass,cam,bottle_glass_big,bottle,[0],2732,26,,
896,condition1,old,yaşlı,man_old_bearded,man,[0.23],4181,27,,
896,condition1,wet,ıslak,shorts_wet_green,shorts,[0.6],2684,28,,
896,condition1,wooden,tahta,spoon_wooden_clean,spoon,[0.02],4805,29,,
896,condition1,square,kare,picture_bw_square,picture,[0],3230,30,,
896,condition1,long,uzun,pencil_long_black,pencil,[0.58],2761,31,,
896,condition1,low,alçak,table_metal_low,table,[0.57],2450,32,,
896,condition1,red,kırmızı,frog_spotted_red,frog,[0.76],2238,33,,
896,condition1,matte,mat,nails_black_matte,nails,[0.8],2961,34,,
896,condition1,black and white,siyah beyaz,picture_bw_rectangular,picture,[0],2955,35,,
896,condition1,straight,düz,hair_straight_blond,hair,[0.38],3122,36,,
896,condition1,closed,kapalı,box_closed_cardboard,box,[0.26],2378,37,,
896,condition1,hat-wearing,şapkalı,man2_bearded_hatted,man,[0.16],3363,38,,
896,condition1,black,siyah,nails_black_glossy,nails,[0.78],2185,39,,
896,condition1,cardboard,karton,box_closed_cardboard,box,[0.28],3954,40,,
896,condition1,dry,kuru,shorts_dry_green,shorts,[0.67],4126,41,,
896,condition1,young,genç,man_young_bearded,man,[0.33],3555,42,,
896,condition1,bearded,sakallı,man_old_bearded,man,[0.09],4761,43,,
896,condition1,skinny,zayıf,woman2_happy_skinny,woman,[0.58],4805,44,,
896,condition1,dirty,kirli,spoon_metal_dirty,spoon,[0.42],1699,45,,
896,condition1,blond,sarı,hair_curly_blonde,hair,[0.42],2539,46,,
896,condition1,small,küçük,bottle_glass_small,bottle,[0.34],3025,47,,
896,condition1,rectangular,dikdörtgen,picture_bw_rectangular,picture,[0],2305,48,,
948,condition1,,,,beyaz,Beyaz,0,1,bot_check,
948,condition1,old,yaşlı,man_old_bearded,man,[0.64],7119,3,,
948,condition1,wet,ıslak,shorts_wet_green,shorts,[0.69],2832,4,,
948,condition1,brown,kahverengi,hair_curly_brown,hair,[0],2208,5,,
948,condition1,hat-wearing,şapkalı,man2_bearded_hatted,man,[0],1839,6,,
948,condition1,cardboard,karton,box_closed_cardboard,box,[0.23],3409,7,,
948,condition1,clean-shaven,sakalsız,man_old_cleanshaven,man,[0],3920,8,,
948,condition1,straight,düz,hair_straight_blond,hair,[0],2536,9,,
948,condition1,high,yüksek,table_metal_high,table,[0.83],3720,10,,
948,condition1,green,yeşil,frog_spotted_green,frog,[0],1800,11,,
948,condition1,rectangular,dikdörtgen,picture_bw_rectangular,picture,[0],1552,12,,
948,condition1,long,uzun,pencil_long_black,pencil,[0.85],1936,13,,
948,condition1,glossy,parlak,nails_black_glossy,nails,[0.7],2256,14,,
948,condition1,striped,çizgili,frog_striped_green,frog,[0],1984,15,,
948,condition1,dirty,kirli,spoon_metal_dirty,spoon,[0.31],3113,16,,
948,condition1,closed,kapalı,box_closed_cardboard,box,[0],2023,17,,
948,condition1,glasses-wearing,gözlüklü,man2_bearded_glassed,man,[0],1536,18,,
948,condition1,big,büyük,bottle_glass_big,bottle,[0.77],2120,19,,
948,condition1,short,kısa,pencil_short_black,pencil,[0.78],1648,20,,
948,condition1,blue,mavi,pencil_long_blue,pencil,[0],2312,21,,
948,condition1,glass,cam,bottle_glass_big,bottle,[0.28],2744,22,,
948,condition1,square,kare,picture_bw_square,picture,[0.01],2776,23,,
948,condition1,spotted,benekli,frog_spotted_green,frog,[0],2872,24,,
948,condition1,plastic,plastik,bottle_plastic_big,bottle,[0.75],2424,25,,
948,condition1,black,siyah,nails_black_glossy,nails,[0],2144,26,,
948,condition1,happy,mutlu,woman_old_happy,woman,[1],2312,27,,
948,condition1,small,küçük,bottle_glass_small,bottle,[0.85],1768,28,,
948,condition1,fat,şişman,woman2_happy_fat,woman,[0.77],1824,29,,
948,condition1,round,yuvarlak,earring_big_round,earring,[0],2472,30,,
948,condition1,bearded,sakallı,man_old_bearded,man,[0],1536,31,,
948,condition1,black and white,siyah beyaz,picture_bw_rectangular,picture,[0],1728,32,,
948,condition1,red,kırmızı,frog_spotted_red,frog,[0],1496,33,,
948,condition1,blond,sarı,hair_curly_blonde,hair,[0],2288,34,,
948,condition1,triangular,üçgen,earring_big_triangular,earring,[0],1552,35,,
948,condition1,curly,kıvırcık,hair_curly_blonde,hair,[0],1888,36,,
948,condition1,wooden,tahta,spoon_wooden_clean,spoon,[0.18],2560,37,,
948,condition1,mustache-touting,bıyıklı,man2_mustached_glassed,man,[0],2248,38,,
948,condition1,open,açık,box_open_cardboard,box,[0],1920,39,,
948,condition1,sad,mutsuz,woman_old_sad,woman,[1],2464,40,,
948,condition1,skinny,zayıf,woman2_happy_skinny,woman,[0.86],1656,41,,
948,condition1,matte,mat,nails_black_matte,nails,[0.79],1799,42,,
948,condition1,metal,metal,spoon_metal_clean,spoon,[0],3137,43,,
948,condition1,dry,kuru,shorts_dry_green,shorts,[0.19],2016,44,,
948,condition1,clean,temiz,spoon_metal_clean,spoon,[1],2864,45,,
948,condition1,colored,renkli,picture_colored_rectangular,picture,[0],1992,46,,
948,condition1,young,genç,man_young_bearded,man,[0.84],2504,47,,
948,condition1,low,alçak,table_metal_low,table,[0.97],2071,48,,
930,condition1,,,,beyaz,Beyaz,0,1,bot_check,
930,condition1,young,genç,man_young_bearded,man,[0.79],12381,3,,
930,condition1,dry,kuru,shorts_dry_green,shorts,[0.23],5242,4,,
930,condition1,spotted,benekli,frog_spotted_green,frog,[0.01],45104,5,,
930,condition1,happy,mutlu,woman_old_happy,woman,[0.75],2726,6,,
930,condition1,red,kırmızı,frog_spotted_red,frog,[0.18],2562,7,,
930,condition1,black and white,siyah beyaz,picture_bw_rectangular,picture,[0.01],2382,8,,
930,condition1,clean-shaven,sakalsız,man_old_cleanshaven,man,[0.02],4469,9,,
930,condition1,glasses-wearing,gözlüklü,man2_bearded_glassed,man,[0.01],3391,10,,
930,condition1,small,küçük,bottle_glass_small,bottle,[0.86],3273,11,,
930,condition1,straight,düz,hair_straight_blond,hair,[0.11],5052,12,,
930,condition1,square,kare,picture_bw_square,picture,[0.07],2959,13,,
930,condition1,plastic,plastik,bottle_plastic_big,bottle,[0.02],2625,14,,
930,condition1,closed,kapalı,box_closed_cardboard,box,[0.01],2313,15,,
930,condition1,wooden,tahta,spoon_wooden_clean,spoon,[0.02],2355,16,,
930,condition1,green,yeşil,frog_spotted_green,frog,[0.14],3334,17,,
930,condition1,wet,ıslak,shorts_wet_green,shorts,[0.14],3307,18,,
930,condition1,round,yuvarlak,earring_big_round,earring,[0.04],4007,19,,
930,condition1,sad,mutsuz,woman_old_sad,woman,[0.81],3714,20,,
930,condition1,matte,mat,nails_black_matte,nails,[0.49],6944,21,,
930,condition1,short,kısa,pencil_short_black,pencil,[0.8],3803,22,,
930,condition1,clean,temiz,spoon_metal_clean,spoon,[0.51],4128,23,,
930,condition1,old,yaşlı,man_old_bearded,man,[0.83],2235,24,,
930,condition1,blond,sarı,hair_curly_blonde,hair,[0.26],4321,25,,
930,condition1,dirty,kirli,spoon_metal_dirty,spoon,[0.17],2398,26,,
930,condition1,skinny,zayıf,woman2_happy_skinny,woman,[0.78],2361,27,,
930,condition1,brown,kahverengi,hair_curly_brown,hair,[0.18],2668,28,,
930,condition1,open,açık,box_open_cardboard,box,[0.02],2958,29,,
930,condition1,big,büyük,bottle_glass_big,bottle,[0.8],2554,30,,
930,condition1,black,siyah,nails_black_glossy,nails,[0.1],2992,31,,
930,condition1,long,uzun,pencil_long_black,pencil,[0.83],2450,32,,
930,condition1,fat,şişman,woman2_happy_fat,woman,[0.81],2180,33,,
930,condition1,low,alçak,table_metal_low,table,[0.79],2504,34,,
930,condition1,metal,metal,spoon_metal_clean,spoon,[0.01],2600,35,,
930,condition1,high,yüksek,table_metal_high,table,[0.81],2613,36,,
930,condition1,glass,cam,bottle_glass_big,bottle,[0.02],2508,37,,
930,condition1,mustache-touting,bıyıklı,man2_mustached_glassed,man,[0.01],2545,38,,
930,condition1,blue,mavi,pencil_long_blue,pencil,[0.23],3334,39,,
930,condition1,hat-wearing,şapkalı,man2_bearded_hatted,man,[0.01],2276,40,,
930,condition1,rectangular,dikdörtgen,picture_bw_rectangular,picture,[0.08],2418,41,,
930,condition1,colored,renkli,picture_colored_rectangular,picture,[0],2878,42,,
930,condition1,cardboard,karton,box_closed_cardboard,box,[0.01],4033,43,,
930,condition1,striped,çizgili,frog_striped_green,frog,[0.01],2628,44,,
930,condition1,glossy,parlak,nails_black_glossy,nails,[0.5],3792,45,,
930,condition1,bearded,sakallı,man_old_bearded,man,[0.02],3292,46,,
930,condition1,curly,kıvırcık,hair_curly_blonde,hair,[0.4],3558,47,,
930,condition1,triangular,üçgen,earring_big_triangular,earring,[0.03],2594,48,,
923,condition1,,,,beyaz,beyaz,0,1,bot_check,
923,condition1,clean-shaven,sakalsız,man_old_cleanshaven,man,[0.99],9295,3,,
923,condition1,curly,kıvırcık,hair_curly_blonde,hair,[1],2935,4,,
923,condition1,high,yüksek,table_metal_high,table,[0],2504,5,,
923,condition1,big,büyük,bottle_glass_big,bottle,[0],2088,6,,
923,condition1,red,kırmızı,frog_spotted_red,frog,[0],2079,7,,
923,condition1,wooden,tahta,spoon_wooden_clean,spoon,[0],3088,8,,
923,condition1,open,açık,box_open_cardboard,box,[0],2152,9,,
923,condition1,happy,mutlu,woman_old_happy,woman,[1],4928,10,,
923,condition1,short,kısa,pencil_short_black,pencil,[0],2233,11,,
923,condition1,glossy,parlak,nails_black_glossy,nails,[0.28],2951,12,,
923,condition1,spotted,benekli,frog_spotted_green,frog,[0.68],4496,13,,
923,condition1,fat,şişman,woman2_happy_fat,woman,[0.8],2696,14,,
923,condition1,blond,sarı,hair_curly_blonde,hair,[0.22],2520,15,,
923,condition1,mustache-touting,bıyıklı,man2_mustached_glassed,man,[1],2664,16,,
923,condition1,black,siyah,nails_black_glossy,nails,[0.22],2056,17,,
923,condition1,bearded,sakallı,man_old_bearded,man,[1],2536,18,,
923,condition1,wet,ıslak,shorts_wet_green,shorts,[0.49],4552,19,,
923,condition1,square,kare,picture_bw_square,picture,[0],2816,20,,
923,condition1,hat-wearing,şapkalı,man2_bearded_hatted,man,[0.81],4152,21,,
923,condition1,rectangular,dikdörtgen,picture_bw_rectangular,picture,[0.13],2264,22,,
923,condition1,colored,renkli,picture_colored_rectangular,picture,[0],3344,23,,
923,condition1,plastic,plastik,bottle_plastic_big,bottle,[1],3704,24,,
923,condition1,round,yuvarlak,earring_big_round,earring,[0.23],2344,25,,
923,condition1,closed,kapalı,box_closed_cardboard,box,[0],1944,26,,
923,condition1,dry,kuru,shorts_dry_green,shorts,[0],2408,27,,
923,condition1,black and white,siyah beyaz,picture_bw_rectangular,picture,[0],2256,28,,
923,condition1,low,alçak,table_metal_low,table,[0.25],2216,29,,
923,condition1,straight,düz,hair_straight_blond,hair,[0.25],3936,30,,
923,condition1,glass,cam,bottle_glass_big,bottle,[0.94],2456,31,,
923,condition1,glasses-wearing,gözlüklü,man2_bearded_glassed,man,[1],1928,32,,
923,condition1,green,yeşil,frog_spotted_green,frog,[0.18],2568,33,,
923,condition1,small,küçük,bottle_glass_small,bottle,[0.17],4344,34,,
923,condition1,brown,kahverengi,hair_curly_brown,hair,[0.86],3040,35,,
923,condition1,triangular,üçgen,earring_big_triangular,earring,[0.8],1968,36,,
923,condition1,matte,mat,nails_black_matte,nails,[0.24],1792,37,,
923,condition1,striped,çizgili,frog_striped_green,frog,[0.62],2544,38,,
923,condition1,sad,mutsuz,woman_old_sad,woman,[0.34],3008,39,,
923,condition1,young,genç,man_young_bearded,man,[0.16],2088,40,,
923,condition1,metal,metal,spoon_metal_clean,spoon,[0.74],2400,41,,
923,condition1,old,yaşlı,man_old_bearded,man,[0.79],1704,42,,
923,condition1,long,uzun,pencil_long_black,pencil,[0.79],2008,43,,
923,condition1,skinny,zayıf,woman2_happy_skinny,woman,[0.23],2040,44,,
923,condition1,clean,temiz,spoon_metal_clean,spoon,[0.22],4104,45,,
923,condition1,cardboard,karton,box_closed_cardboard,box,[0.05],2640,46,,
923,condition1,dirty,kirli,spoon_metal_dirty,spoon,[0.29],1632,47,,
923,condition1,blue,mavi,pencil_long_blue,pencil,[0.75],2552,48,,
883,condition1,,,,beyaz,beyaz,0,1,bot_check,
883,condition1,clean,temiz,spoon_metal_clean,spoon,[0.58],11850,3,,
883,condition1,low,alçak,table_metal_low,table,[0.23],4060,4,,
883,condition1,wooden,tahta,spoon_wooden_clean,spoon,[0.19],3196,5,,
883,condition1,young,genç,man_young_bearded,man,[0.58],4329,6,,
883,condition1,closed,kapalı,box_closed_cardboard,box,[0.08],6678,7,,
883,condition1,curly,kıvırcık,hair_curly_blonde,hair,[0.28],4939,8,,
883,condition1,mustache-touting,bıyıklı,man2_mustached_glassed,man,[0.25],3059,9,,
883,condition1,fat,şişman,woman2_happy_fat,woman,[0.54],3303,10,,
883,condition1,straight,düz,hair_straight_blond,hair,[0.04],3329,11,,
883,condition1,black,siyah,nails_black_glossy,nails,[0.1],3165,12,,
883,condition1,red,kırmızı,frog_spotted_red,frog,[0.08],4994,13,,
883,condition1,high,yüksek,table_metal_high,table,[0.51],3044,14,,
883,condition1,dry,kuru,shorts_dry_green,shorts,[0.25],4308,15,,
883,condition1,metal,metal,spoon_metal_clean,spoon,[0.08],4108,16,,
883,condition1,short,kısa,pencil_short_black,pencil,[0.37],4199,17,,
883,condition1,long,uzun,pencil_long_black,pencil,[0.45],2762,18,,
883,condition1,plastic,plastik,bottle_plastic_big,bottle,[0.04],3069,19,,
883,condition1,big,büyük,bottle_glass_big,bottle,[0.62],3174,20,,
883,condition1,green,yeşil,frog_spotted_green,frog,[0.12],3026,21,,
883,condition1,triangular,üçgen,earring_big_triangular,earring,[0.06],3589,22,,
883,condition1,skinny,zayıf,woman2_happy_skinny,woman,[0.54],2957,23,,
883,condition1,black and white,siyah beyaz,picture_bw_rectangular,picture,[0.04],3124,24,,
883,condition1,dirty,kirli,spoon_metal_dirty,spoon,[0.45],7004,25,,
883,condition1,spotted,benekli,frog_spotted_green,frog,[0.11],3301,26,,
883,condition1,small,küçük,bottle_glass_small,bottle,[0.38],5545,27,,
883,condition1,glass,cam,bottle_glass_big,bottle,[0.1],5822,28,,
883,condition1,square,kare,picture_bw_square,picture,[0.1],3010,29,,
883,condition1,striped,çizgili,frog_striped_green,frog,[0.08],2867,30,,
883,condition1,glasses-wearing,gözlüklü,man2_bearded_glassed,man,[0.52],5713,31,,
883,condition1,colored,renkli,picture_colored_rectangular,picture,[0.05],2807,32,,
883,condition1,open,açık,box_open_cardboard,box,[0.23],2809,33,,
883,condition1,round,yuvarlak,earring_big_round,earring,[0.14],2950,34,,
883,condition1,wet,ıslak,shorts_wet_green,shorts,[0.06],3302,35,,
883,condition1,bearded,sakallı,man_old_bearded,man,[0.29],3421,36,,
883,condition1,hat-wearing,şapkalı,man2_bearded_hatted,man,[0.42],2910,37,,
883,condition1,cardboard,karton,box_closed_cardboard,box,[0.07],3125,38,,
883,condition1,glossy,parlak,nails_black_glossy,nails,[0.4],3512,39,,
883,condition1,sad,mutsuz,woman_old_sad,woman,[0.82],4417,40,,
883,condition1,clean-shaven,sakalsız,man_old_cleanshaven,man,[0.53],3153,41,,
883,condition1,blue,mavi,pencil_long_blue,pencil,[0.06],3181,42,,
883,condition1,blond,sarı,hair_curly_blonde,hair,[0.07],3162,43,,
883,condition1,old,yaşlı,man_old_bearded,man,[0.08],4162,44,,
883,condition1,matte,mat,nails_black_matte,nails,[0.09],3263,45,,
883,condition1,happy,mutlu,woman_old_happy,woman,[0.74],3009,46,,
883,condition1,rectangular,dikdörtgen,picture_bw_rectangular,picture,[0.06],3991,47,,
883,condition1,brown,kahverengi,hair_curly_brown,hair,[0.07],3801,48,,
919,condition1,,,,beyaz,Beyaz,0,1,bot_check,
919,condition1,spotted,benekli,frog_spotted_green,frog,[0],12144,3,,
919,condition1,striped,çizgili,frog_striped_green,frog,[0],4721,4,,
919,condition1,cardboard,karton,box_closed_cardboard,box,[0],3186,5,,
919,condition1,square,kare,picture_bw_square,picture,[0],3630,6,,
919,condition1,glass,cam,bottle_glass_big,bottle,[0],3210,7,,
919,condition1,wet,ıslak,shorts_wet_green,shorts,[0],13539,8,,
919,condition1,big,büyük,bottle_glass_big,bottle,[0.49],6232,9,,
919,condition1,bearded,sakallı,man_old_bearded,man,[0.31],4524,10,,
919,condition1,sad,mutsuz,woman_old_sad,woman,[0.65],5279,11,,
919,condition1,brown,kahverengi,hair_curly_brown,hair,[0.23],7885,12,,
919,condition1,black,siyah,nails_black_glossy,nails,[0.24],3075,13,,
919,condition1,black and white,siyah beyaz,picture_bw_rectangular,picture,[0],8322,14,,
919,condition1,blue,mavi,pencil_long_blue,pencil,[0.22],2980,15,,
919,condition1,low,alçak,table_metal_low,table,[1],5592,16,,
919,condition1,glasses-wearing,gözlüklü,man2_bearded_glassed,man,[0],2799,17,,
919,condition1,high,yüksek,table_metal_high,table,[0.26],3937,18,,
919,condition1,open,açık,box_open_cardboard,box,[0],8206,19,,
919,condition1,skinny,zayıf,woman2_happy_skinny,woman,[0.74],6799,20,,
919,condition1,fat,şişman,woman2_happy_fat,woman,[0.69],3126,21,,
919,condition1,happy,mutlu,woman_old_happy,woman,[0.75],3674,22,,
919,condition1,young,genç,man_young_bearded,man,[0.61],11303,23,,
919,condition1,round,yuvarlak,earring_big_round,earring,[0],5645,24,,
919,condition1,matte,mat,nails_black_matte,nails,[0],8279,25,,
919,condition1,rectangular,dikdörtgen,picture_bw_rectangular,picture,[0],3174,26,,
919,condition1,dry,kuru,shorts_dry_green,shorts,[0],5138,27,,
919,condition1,mustache-touting,bıyıklı,man2_mustached_glassed,man,[0.36],6618,28,,
919,condition1,wooden,tahta,spoon_wooden_clean,spoon,[0],2781,29,,
919,condition1,green,yeşil,frog_spotted_green,frog,[0.2],2986,30,,
919,condition1,hat-wearing,şapkalı,man2_bearded_hatted,man,[0],3557,31,,
919,condition1,curly,kıvırcık,hair_curly_blonde,hair,[0.14],4903,32,,
919,condition1,colored,renkli,picture_colored_rectangular,picture,[0.01],9199,33,,
919,condition1,triangular,üçgen,earring_big_triangular,earring,[0],5096,34,,
919,condition1,straight,düz,hair_straight_blond,hair,[0],3103,35,,
919,condition1,metal,metal,spoon_metal_clean,spoon,[0],6747,36,,
919,condition1,dirty,kirli,spoon_metal_dirty,spoon,[0.48],5402,37,,
919,condition1,red,kırmızı,frog_spotted_red,frog,[0.25],4018,38,,
919,condition1,clean,temiz,spoon_metal_clean,spoon,[0.48],6791,39,,
919,condition1,blond,sarı,hair_curly_blonde,hair,[0.22],3329,40,,
919,condition1,plastic,plastik,bottle_plastic_big,bottle,[0],6250,41,,
919,condition1,short,kısa,pencil_short_black,pencil,[0.81],10745,42,,
919,condition1,long,uzun,pencil_long_black,pencil,[0.84],4232,43,,
919,condition1,old,yaşlı,man_old_bearded,man,[0.71],5245,44,,
919,condition1,glossy,parlak,nails_black_glossy,nails,[0.27],7302,45,,
919,condition1,small,küçük,bottle_glass_small,bottle,[0.7],3680,46,,
919,condition1,closed,kapalı,box_closed_cardboard,box,[0],3526,47,,
919,condition1,clean-shaven,sakalsız,man_old_cleanshaven,man,[0],5043,48,,
925,condition1,,,,beyaz,Beyaz,0,1,bot_check,
925,condition1,dirty,kirli,spoon_metal_dirty,spoon,[0.91],12582,3,,
925,condition1,open,açık,box_open_cardboard,box,[0.94],5224,4,,
925,condition1,sad,mutsuz,woman_old_sad,woman,[0.46],3144,5,,
925,condition1,big,büyük,bottle_glass_big,bottle,[0.14],3269,6,,
925,condition1,small,küçük,bottle_glass_small,bottle,[0.19],1893,7,,
925,condition1,clean,temiz,spoon_metal_clean,spoon,[0.76],2818,8,,
925,condition1,old,yaşlı,man_old_bearded,man,[0.91],2852,9,,
925,condition1,wet,ıslak,shorts_wet_green,shorts,[0.04],4688,10,,
925,condition1,metal,metal,spoon_metal_clean,spoon,[0],1984,11,,
925,condition1,striped,çizgili,frog_striped_green,frog,[0.49],2392,12,,
925,condition1,hat-wearing,şapkalı,man2_bearded_hatted,man,[0.02],3795,13,,
925,condition1,red,kırmızı,frog_spotted_red,frog,[0.98],5338,14,,
925,condition1,skinny,zayıf,woman2_happy_skinny,woman,[0.92],2458,15,,
925,condition1,young,genç,man_young_bearded,man,[0.96],4403,16,,
925,condition1,blue,mavi,pencil_long_blue,pencil,[0.01],3693,17,,
925,condition1,cardboard,karton,box_closed_cardboard,box,[0.01],2434,18,,
925,condition1,square,kare,picture_bw_square,picture,[0.51],2126,19,,
925,condition1,green,yeşil,frog_spotted_green,frog,[0.49],2335,20,,
925,condition1,straight,düz,hair_straight_blond,hair,[0.78],3660,21,,
925,condition1,high,yüksek,table_metal_high,table,[0.78],2385,22,,
925,condition1,round,yuvarlak,earring_big_round,earring,[0.19],6388,23,,
925,condition1,blond,sarı,hair_curly_blonde,hair,[0.69],2733,24,,
925,condition1,glass,cam,bottle_glass_big,bottle,[0.01],5787,25,,
925,condition1,clean-shaven,sakalsız,man_old_cleanshaven,man,[0.7],8870,26,,
925,condition1,long,uzun,pencil_long_black,pencil,[0.5],22583,27,,
925,condition1,brown,kahverengi,hair_curly_brown,hair,[0.45],2210,28,,
925,condition1,bearded,sakallı,man_old_bearded,man,[0.01],4622,29,,
925,condition1,colored,renkli,picture_colored_rectangular,picture,[0.89],3695,30,,
925,condition1,low,alçak,table_metal_low,table,[0.9],2328,31,,
925,condition1,matte,mat,nails_black_matte,nails,[0.93],3003,32,,
925,condition1,closed,kapalı,box_closed_cardboard,box,[0.95],2401,33,,
925,condition1,fat,şişman,woman2_happy_fat,woman,[0.93],2502,34,,
925,condition1,black,siyah,nails_black_glossy,nails,[0.88],2286,35,,
925,condition1,curly,kıvırcık,hair_curly_blonde,hair,[0.9],3319,36,,
925,condition1,spotted,benekli,frog_spotted_green,frog,[0.83],2400,37,,
925,condition1,dry,kuru,shorts_dry_green,shorts,[0.96],2350,38,,
925,condition1,glossy,parlak,nails_black_glossy,nails,[0.94],2211,39,,
925,condition1,triangular,üçgen,earring_big_triangular,earring,[0.94],3685,40,,
925,condition1,rectangular,dikdörtgen,picture_bw_rectangular,picture,[0.91],2211,41,,
925,condition1,glasses-wearing,gözlüklü,man2_bearded_glassed,man,[0.07],4774,42,,
925,condition1,black and white,siyah beyaz,picture_bw_rectangular,picture,[0.86],13523,43,,
925,condition1,wooden,tahta,spoon_wooden_clean,spoon,[0.05],3467,44,,
925,condition1,short,kısa,pencil_short_black,pencil,[0.94],2311,45,,
925,condition1,happy,mutlu,woman_old_happy,woman,[0.95],2470,46,,
925,condition1,plastic,plastik,bottle_plastic_big,bottle,[0.02],4079,47,,
925,condition1,mustache-touting,bıyıklı,man2_mustached_glassed,man,[0.17],3789,48,,
957,condition1,,,,beyaz,beyaz,0,1,bot_check,
957,condition1,skinny,zayıf,woman2_happy_skinny,woman,[0.99],10074,3,,
957,condition1,happy,mutlu,woman_old_happy,woman,[0.98],4531,4,,
957,condition1,rectangular,dikdörtgen,picture_bw_rectangular,picture,[0.01],3986,5,,
957,condition1,green,yeşil,frog_spotted_green,frog,[0.74],3771,6,,
957,condition1,sad,mutsuz,woman_old_sad,woman,[0.98],3456,7,,
957,condition1,square,kare,picture_bw_square,picture,[0.02],3948,8,,
957,condition1,striped,çizgili,frog_striped_green,frog,[0.56],4880,9,,
957,condition1,high,yüksek,table_metal_high,table,[0.8],5447,10,,
957,condition1,fat,şişman,woman2_happy_fat,woman,[0.85],3011,11,,
957,condition1,old,yaşlı,man_old_bearded,man,[0.6],5482,12,,
957,condition1,blond,sarı,hair_curly_blonde,hair,[0.57],3451,13,,
957,condition1,triangular,üçgen,earring_big_triangular,earring,[0.01],3570,14,,
957,condition1,big,büyük,bottle_glass_big,bottle,[0.93],2903,15,,
957,condition1,cardboard,karton,box_closed_cardboard,box,[0],6256,16,,
957,condition1,bearded,sakallı,man_old_bearded,man,[0.16],6478,17,,
957,condition1,open,açık,box_open_cardboard,box,[0.49],6503,18,,
957,condition1,clean-shaven,sakalsız,man_old_cleanshaven,man,[0.01],4123,19,,
957,condition1,small,küçük,bottle_glass_small,bottle,[0.99],3194,20,,
957,condition1,round,yuvarlak,earring_big_round,earring,[0],3060,21,,
957,condition1,hat-wearing,şapkalı,man2_bearded_hatted,man,[0],2809,22,,
957,condition1,dirty,kirli,spoon_metal_dirty,spoon,[0.74],2929,23,,
957,condition1,plastic,plastik,bottle_plastic_big,bottle,[0.01],3174,24,,
957,condition1,low,alçak,table_metal_low,table,[0.94],3141,25,,
957,condition1,straight,düz,hair_straight_blond,hair,[0.03],4560,26,,
957,condition1,glass,cam,bottle_glass_big,bottle,[0.02],2945,27,,
957,condition1,closed,kapalı,box_closed_cardboard,box,[0.49],3852,28,,
957,condition1,blue,mavi,pencil_long_blue,pencil,[0.48],4011,29,,
957,condition1,short,kısa,pencil_short_black,pencil,[0.99],4323,30,,
957,condition1,glossy,parlak,nails_black_glossy,nails,[0.64],3536,31,,
957,condition1,young,genç,man_young_bearded,man,[0.68],2550,32,,
957,condition1,spotted,benekli,frog_spotted_green,frog,[0.01],7125,33,,
957,condition1,colored,renkli,picture_colored_rectangular,picture,[0.48],5928,34,,
957,condition1,glasses-wearing,gözlüklü,man2_bearded_glassed,man,[0.02],2880,35,,
957,condition1,metal,metal,spoon_metal_clean,spoon,[0.02],2854,36,,
957,condition1,wet,ıslak,shorts_wet_green,shorts,[0.38],4375,37,,
957,condition1,red,kırmızı,frog_spotted_red,frog,[0.59],2893,38,,
957,condition1,curly,kıvırcık,hair_curly_blonde,hair,[0.11],2738,39,,
957,condition1,black,siyah,nails_black_glossy,nails,[0.49],3215,40,,
957,condition1,mustache-touting,bıyıklı,man2_mustached_glassed,man,[0],3341,41,,
957,condition1,black and white,siyah beyaz,picture_bw_rectangular,picture,[0.97],5747,42,,
957,condition1,matte,mat,nails_black_matte,nails,[0.69],2945,43,,
957,condition1,clean,temiz,spoon_metal_clean,spoon,[0.78],3655,44,,
957,condition1,long,uzun,pencil_long_black,pencil,[0.83],3634,45,,
957,condition1,wooden,tahta,spoon_wooden_clean,spoon,[0.01],2948,46,,
957,condition1,dry,kuru,shorts_dry_green,shorts,[0.03],3679,47,,
957,condition1,brown,kahverengi,hair_curly_brown,hair,[0.45],3773,48,,
918,condition1,,,,beyaz,Beyaz,0,1,bot_check,
918,condition1,blue,mavi,pencil_long_blue,pencil,[0.77],7292,3,,
918,condition1,wet,ıslak,shorts_wet_green,shorts,[0.79],3010,4,,
918,condition1,cardboard,karton,box_closed_cardboard,box,[0.03],4078,5,,
918,condition1,skinny,zayıf,woman2_happy_skinny,woman,[1],2805,6,,
918,condition1,round,yuvarlak,earring_big_round,earring,[0.53],2205,7,,
918,condition1,black,siyah,nails_black_glossy,nails,[0.56],2531,8,,
918,condition1,hat-wearing,şapkalı,man2_bearded_hatted,man,[0.04],2555,9,,
918,condition1,closed,kapalı,box_closed_cardboard,box,[0.41],2492,10,,
918,condition1,triangular,üçgen,earring_big_triangular,earring,[0.08],2534,11,,
918,condition1,colored,renkli,picture_colored_rectangular,picture,[0.49],2629,12,,
918,condition1,plastic,plastik,bottle_plastic_big,bottle,[0.02],2126,13,,
918,condition1,dirty,kirli,spoon_metal_dirty,spoon,[0.5],1937,14,,
918,condition1,glossy,parlak,nails_black_glossy,nails,[0.66],2688,15,,
918,condition1,green,yeşil,frog_spotted_green,frog,[0.57],1888,16,,
918,condition1,fat,şişman,woman2_happy_fat,woman,[0.98],2423,17,,
918,condition1,clean-shaven,sakalsız,man_old_cleanshaven,man,[0.31],2723,18,,
918,condition1,metal,metal,spoon_metal_clean,spoon,[0.05],2239,19,,
918,condition1,spotted,benekli,frog_spotted_green,frog,[0.26],2845,20,,
918,condition1,clean,temiz,spoon_metal_clean,spoon,[0.58],2468,21,,
918,condition1,straight,düz,hair_straight_blond,hair,[0.53],2249,22,,
918,condition1,open,açık,box_open_cardboard,box,[0.2],1789,23,,
918,condition1,curly,kıvırcık,hair_curly_blonde,hair,[0.41],1792,24,,
918,condition1,brown,kahverengi,hair_curly_brown,hair,[0.53],2218,25,,
918,condition1,sad,mutsuz,woman_old_sad,woman,[0.84],3471,26,,
918,condition1,bearded,sakallı,man_old_bearded,man,[0.2],2635,27,,
918,condition1,square,kare,picture_bw_square,picture,[0],3421,28,,
918,condition1,blond,sarı,hair_curly_blonde,hair,[0.41],2543,29,,
918,condition1,high,yüksek,table_metal_high,table,[0.76],3151,30,,
918,condition1,rectangular,dikdörtgen,picture_bw_rectangular,picture,[0.15],1832,31,,
918,condition1,matte,mat,nails_black_matte,nails,[0.73],2583,32,,
918,condition1,happy,mutlu,woman_old_happy,woman,[0.95],2089,33,,
918,condition1,mustache-touting,bıyıklı,man2_mustached_glassed,man,[0.15],2215,34,,
918,condition1,glasses-wearing,gözlüklü,man2_bearded_glassed,man,[0],4151,35,,
918,condition1,glass,cam,bottle_glass_big,bottle,[0.1],1920,36,,
918,condition1,striped,çizgili,frog_striped_green,frog,[0.31],1700,37,,
918,condition1,black and white,siyah beyaz,picture_bw_rectangular,picture,[0.47],2315,38,,
918,condition1,old,yaşlı,man_old_bearded,man,[0.75],6907,39,,
918,condition1,big,büyük,bottle_glass_big,bottle,[0.64],2152,40,,
918,condition1,wooden,tahta,spoon_wooden_clean,spoon,[0.09],6103,41,,
918,condition1,dry,kuru,shorts_dry_green,shorts,[0.3],2347,42,,
918,condition1,long,uzun,pencil_long_black,pencil,[0.86],2153,43,,
918,condition1,red,kırmızı,frog_spotted_red,frog,[0.44],1997,44,,
918,condition1,low,alçak,table_metal_low,table,[0.85],1872,45,,
918,condition1,young,genç,man_young_bearded,man,[0.97],2839,46,,
918,condition1,short,kısa,pencil_short_black,pencil,[0.82],2931,47,,
918,condition1,small,küçük,bottle_glass_small,bottle,[0.85],1535,48,,
901,condition1,,,,beyaz,beyaz,0,1,bot_check,
901,condition1,brown,kahverengi,hair_curly_brown,hair,[0.49],110607,3,,
901,condition1,wooden,tahta,spoon_wooden_clean,spoon,[0.01],5926,4,,
901,condition1,low,alçak,table_metal_low,table,[0.49],7115,5,,
901,condition1,skinny,zayıf,woman2_happy_skinny,woman,[0.5],5570,6,,
901,condition1,glass,cam,bottle_glass_big,bottle,[0.02],3795,7,,
901,condition1,glossy,parlak,nails_black_glossy,nails,[0.49],5219,8,,
901,condition1,plastic,plastik,bottle_plastic_big,bottle,[0],2971,9,,
901,condition1,striped,çizgili,frog_striped_green,frog,[0.02],3631,10,,
901,condition1,open,açık,box_open_cardboard,box,[0.49],9490,11,,
901,condition1,fat,şişman,woman2_happy_fat,woman,[0.97],5135,12,,
901,condition1,triangular,üçgen,earring_big_triangular,earring,[0.02],2339,13,,
901,condition1,dry,kuru,shorts_dry_green,shorts,[0.99],4055,14,,
901,condition1,green,yeşil,frog_spotted_green,frog,[0.49],5863,15,,
901,condition1,high,yüksek,table_metal_high,table,[0.98],5795,16,,
901,condition1,short,kısa,pencil_short_black,pencil,[0.5],4139,17,,
901,condition1,closed,kapalı,box_closed_cardboard,box,[0.02],5210,18,,
901,condition1,rectangular,dikdörtgen,picture_bw_rectangular,picture,[0.03],3927,19,,
901,condition1,round,yuvarlak,earring_big_round,earring,[0.03],2731,20,,
901,condition1,black,siyah,nails_black_glossy,nails,[0.02],3379,21,,
901,condition1,happy,mutlu,woman_old_happy,woman,[0.96],2891,22,,
901,condition1,big,büyük,bottle_glass_big,bottle,[0.97],2736,23,,
901,condition1,spotted,benekli,frog_spotted_green,frog,[0.48],3767,24,,
901,condition1,colored,renkli,picture_colored_rectangular,picture,[0.98],3827,25,,
901,condition1,matte,mat,nails_black_matte,nails,[0.02],3587,26,,
901,condition1,red,kırmızı,frog_spotted_red,frog,[0.51],2963,27,,
901,condition1,bearded,sakallı,man_old_bearded,man,[0.01],3387,28,,
901,condition1,small,küçük,bottle_glass_small,bottle,[0.96],2648,29,,
901,condition1,blue,mavi,pencil_long_blue,pencil,[0.5],3175,30,,
901,condition1,sad,mutsuz,woman_old_sad,woman,[0.98],2406,31,,
901,condition1,clean,temiz,spoon_metal_clean,spoon,[0.99],3127,32,,
901,condition1,black and white,siyah beyaz,picture_bw_rectangular,picture,[0.03],2844,33,,
901,condition1,old,yaşlı,man_old_bearded,man,[1],1903,34,,
901,condition1,metal,metal,spoon_metal_clean,spoon,[0.03],1984,35,,
901,condition1,blond,sarı,hair_curly_blonde,hair,[0.51],3239,36,,
901,condition1,cardboard,karton,box_closed_cardboard,box,[0.02],2331,37,,
901,condition1,long,uzun,pencil_long_black,pencil,[0.99],2404,38,,
901,condition1,mustache-touting,bıyıklı,man2_mustached_glassed,man,[0.03],2843,39,,
901,condition1,dirty,kirli,spoon_metal_dirty,spoon,[0.97],1951,40,,
901,condition1,square,kare,picture_bw_square,picture,[0.01],2948,41,,
901,condition1,hat-wearing,şapkalı,man2_bearded_hatted,man,[0.02],3971,42,,
901,condition1,curly,kıvırcık,hair_curly_blonde,hair,[0.97],3951,43,,
901,condition1,straight,düz,hair_straight_blond,hair,[0.99],3259,44,,
901,condition1,young,genç,man_young_bearded,man,[0.99],1787,45,,
901,condition1,clean-shaven,sakalsız,man_old_cleanshaven,man,[0.03],2956,46,,
901,condition1,wet,ıslak,shorts_wet_green,shorts,[0.54],3387,47,,
901,condition1,glasses-wearing,gözlüklü,man2_bearded_glassed,man,[0.03],2591,48,,
912,condition1,,,,beyaz,Beyaz,0,1,bot_check,
912,condition1,matte,mat,nails_black_matte,nails,[0.75],20444,3,,
912,condition1,square,kare,picture_bw_square,picture,[1],6907,4,,
912,condition1,short,kısa,pencil_short_black,pencil,[0.97],96480,5,,
912,condition1,sad,mutsuz,woman_old_sad,woman,[0.97],5700,6,,
912,condition1,spotted,benekli,frog_spotted_green,frog,[0.02],4699,7,,
912,condition1,wooden,tahta,spoon_wooden_clean,spoon,[0.01],4049,8,,
912,condition1,closed,kapalı,box_closed_cardboard,box,[0.97],3099,9,,
912,condition1,wet,ıslak,shorts_wet_green,shorts,[0.99],3600,10,,
912,condition1,glossy,parlak,nails_black_glossy,nails,[0.97],3283,11,,
912,condition1,fat,şişman,woman2_happy_fat,woman,[0.44],4384,12,,
912,condition1,curly,kıvırcık,hair_curly_blonde,hair,[0.53],3066,13,,
912,condition1,colored,renkli,picture_colored_rectangular,picture,[0.76],6983,14,,
912,condition1,bearded,sakallı,man_old_bearded,man,[0.02],3967,15,,
912,condition1,green,yeşil,frog_spotted_green,frog,[0.33],4303,16,,
912,condition1,old,yaşlı,man_old_bearded,man,[0.64],6348,17,,
912,condition1,high,yüksek,table_metal_high,table,[0.2],6698,18,,
912,condition1,clean,temiz,spoon_metal_clean,spoon,[0.9],5249,19,,
912,condition1,metal,metal,spoon_metal_clean,spoon,[0.02],4587,20,,
912,condition1,straight,düz,hair_straight_blond,hair,[0.53],6634,21,,
912,condition1,skinny,zayıf,woman2_happy_skinny,woman,[0.32],7296,22,,
912,condition1,small,küçük,bottle_glass_small,bottle,[0.35],3868,23,,
912,condition1,triangular,üçgen,earring_big_triangular,earring,[0.08],2731,24,,
912,condition1,young,genç,man_young_bearded,man,[0.95],4970,25,,
912,condition1,rectangular,dikdörtgen,picture_bw_rectangular,picture,[0.04],2382,26,,
912,condition1,hat-wearing,şapkalı,man2_bearded_hatted,man,[0.29],3380,27,,
912,condition1,dirty,kirli,spoon_metal_dirty,spoon,[0.88],4218,28,,
912,condition1,brown,kahverengi,hair_curly_brown,hair,[0.47],3452,29,,
912,condition1,clean-shaven,sakalsız,man_old_cleanshaven,man,[0.55],3968,30,,
912,condition1,black and white,siyah beyaz,picture_bw_rectangular,picture,[0.09],3897,31,,
912,condition1,blond,sarı,hair_curly_blonde,hair,[0.23],4137,32,,
912,condition1,black,siyah,nails_black_glossy,nails,[0.4],3807,33,,
912,condition1,plastic,plastik,bottle_plastic_big,bottle,[0.25],3621,34,,
912,condition1,cardboard,karton,box_closed_cardboard,box,[0.13],2831,35,,
912,condition1,open,açık,box_open_cardboard,box,[0.87],2549,36,,
912,condition1,big,büyük,bottle_glass_big,bottle,[0.19],3633,37,,
912,condition1,glasses-wearing,gözlüklü,man2_bearded_glassed,man,[0.16],3684,38,,
912,condition1,round,yuvarlak,earring_big_round,earring,[0.1],29285,39,,
912,condition1,long,uzun,pencil_long_black,pencil,[0.07],16257,40,,
912,condition1,red,kırmızı,frog_spotted_red,frog,[0.7],7893,41,,
912,condition1,happy,mutlu,woman_old_happy,woman,[0.87],4331,42,,
912,condition1,striped,çizgili,frog_striped_green,frog,[0.26],3069,43,,
912,condition1,dry,kuru,shorts_dry_green,shorts,[0.84],5147,44,,
912,condition1,glass,cam,bottle_glass_big,bottle,[0.12],2800,45,,
912,condition1,low,alçak,table_metal_low,table,[0.82],4244,46,,
912,condition1,blue,mavi,pencil_long_blue,pencil,[0.34],3976,47,,
912,condition1,mustache-touting,bıyıklı,man2_mustached_glassed,man,[0.13],3829,48,,
915,condition1,,,,beyaz,Beyaz,0,1,bot_check,
915,condition1,closed,kapalı,box_closed_cardboard,box,[0.44],48264,3,,
915,condition1,glossy,parlak,nails_black_glossy,nails,[0.41],38036,4,,
915,condition1,clean,temiz,spoon_metal_clean,spoon,[0.59],23283,5,,
915,condition1,clean-shaven,sakalsız,man_old_cleanshaven,man,[0.2],32337,6,,
915,condition1,old,yaşlı,man_old_bearded,man,[0.22],11691,7,,
915,condition1,small,küçük,bottle_glass_small,bottle,[0.56],42682,8,,
915,condition1,glass,cam,bottle_glass_big,bottle,[1],42088,9,,
915,condition1,cardboard,karton,box_closed_cardboard,box,[1],12409,10,,
915,condition1,matte,mat,nails_black_matte,nails,[0.25],19565,11,,
915,condition1,metal,metal,spoon_metal_clean,spoon,[0],38694,12,,
915,condition1,brown,kahverengi,hair_curly_brown,hair,[0.17],9080,13,,
915,condition1,straight,düz,hair_straight_blond,hair,[0.06],7298,14,,
915,condition1,dirty,kirli,spoon_metal_dirty,spoon,[0.65],17800,15,,
915,condition1,spotted,benekli,frog_spotted_green,frog,[0],6490,16,,
915,condition1,rectangular,dikdörtgen,picture_bw_rectangular,picture,[0],7058,17,,
915,condition1,mustache-touting,bıyıklı,man2_mustached_glassed,man,[0.08],9387,18,,
915,condition1,skinny,zayıf,woman2_happy_skinny,woman,[0.8],9017,19,,
915,condition1,red,kırmızı,frog_spotted_red,frog,[0.07],6786,20,,
915,condition1,blue,mavi,pencil_long_blue,pencil,[0.1],3589,21,,
915,condition1,plastic,plastik,bottle_plastic_big,bottle,[0],5339,22,,
915,condition1,wet,ıslak,shorts_wet_green,shorts,[0.12],6902,23,,
915,condition1,blond,sarı,hair_curly_blonde,hair,[0.09],3636,24,,
915,condition1,high,yüksek,table_metal_high,table,[0.32],7904,25,,
915,condition1,glasses-wearing,gözlüklü,man2_bearded_glassed,man,[0],3902,26,,
915,condition1,fat,şişman,woman2_happy_fat,woman,[0.78],2923,27,,
915,condition1,sad,mutsuz,woman_old_sad,woman,[0.25],12939,28,,
915,condition1,young,genç,man_young_bearded,man,[0.2],4817,29,,
915,condition1,black and white,siyah beyaz,picture_bw_rectangular,picture,[0],6363,30,,
915,condition1,black,siyah,nails_black_glossy,nails,[0],4166,31,,
915,condition1,dry,kuru,shorts_dry_green,shorts,[0.08],6799,32,,
915,condition1,low,alçak,table_metal_low,table,[0.22],7384,33,,
915,condition1,happy,mutlu,woman_old_happy,woman,[0.24],7638,34,,
915,condition1,big,büyük,bottle_glass_big,bottle,[0.27],4219,35,,
915,condition1,green,yeşil,frog_spotted_green,frog,[0.07],5222,36,,
915,condition1,round,yuvarlak,earring_big_round,earring,[0],8176,37,,
915,condition1,bearded,sakallı,man_old_bearded,man,[0.19],6294,38,,
915,condition1,short,kısa,pencil_short_black,pencil,[0.28],5712,39,,
915,condition1,colored,renkli,picture_colored_rectangular,picture,[0.29],6582,40,,
915,condition1,triangular,üçgen,earring_big_triangular,earring,[0],4072,41,,
915,condition1,curly,kıvırcık,hair_curly_blonde,hair,[0.05],5478,42,,
915,condition1,long,uzun,pencil_long_black,pencil,[0.28],4608,43,,
915,condition1,hat-wearing,şapkalı,man2_bearded_hatted,man,[0],4888,44,,
915,condition1,wooden,tahta,spoon_wooden_clean,spoon,[0],7180,45,,
915,condition1,open,açık,box_open_cardboard,box,[0.35],11648,46,,
915,condition1,square,kare,picture_bw_square,picture,[0],3916,47,,
915,condition1,striped,çizgili,frog_striped_green,frog,[0],4163,48,,
907,condition1,,,,beyaz,beyaz,0,1,bot_check,
907,condition1,plastic,plastik,bottle_plastic_big,bottle,[0],152280,3,,
907,condition1,glass,cam,bottle_glass_big,bottle,[0],3598,4,,
907,condition1,green,yeşil,frog_spotted_green,frog,[0.38],11024,5,,
907,condition1,clean-shaven,sakalsız,man_old_cleanshaven,man,[0],3420,6,,
907,condition1,black and white,siyah beyaz,picture_bw_rectangular,picture,[0],2305,7,,
907,condition1,long,uzun,pencil_long_black,pencil,[0.76],3981,8,,
907,condition1,curly,kıvırcık,hair_curly_blonde,hair,[0.64],3277,9,,
907,condition1,young,genç,man_young_bearded,man,[0.83],2229,10,,
907,condition1,sad,mutsuz,woman_old_sad,woman,[0.83],2115,11,,
907,condition1,spotted,benekli,frog_spotted_green,frog,[0.28],4569,12,,
907,condition1,small,küçük,bottle_glass_small,bottle,[0.8],2428,13,,
907,condition1,old,yaşlı,man_old_bearded,man,[0.86],2842,14,,
907,condition1,rectangular,dikdörtgen,picture_bw_rectangular,picture,[0],2789,15,,
907,condition1,wooden,tahta,spoon_wooden_clean,spoon,[0],3435,16,,
907,condition1,triangular,üçgen,earring_big_triangular,earring,[0],2273,17,,
907,condition1,cardboard,karton,box_closed_cardboard,box,[0],3307,18,,
907,condition1,short,kısa,pencil_short_black,pencil,[0.87],27167,19,,
907,condition1,matte,mat,nails_black_matte,nails,[0.64],5145,20,,
907,condition1,high,yüksek,table_metal_high,table,[0.79],2744,21,,
907,condition1,dry,kuru,shorts_dry_green,shorts,[0],2970,22,,
907,condition1,mustache-touting,bıyıklı,man2_mustached_glassed,man,[0.41],4186,23,,
907,condition1,striped,çizgili,frog_striped_green,frog,[0],4388,24,,
907,condition1,glasses-wearing,gözlüklü,man2_bearded_glassed,man,[0.01],3337,25,,
907,condition1,happy,mutlu,woman_old_happy,woman,[1],2557,26,,
907,condition1,brown,kahverengi,hair_curly_brown,hair,[0.34],4028,27,,
907,condition1,metal,metal,spoon_metal_clean,spoon,[0],2518,28,,
907,condition1,straight,düz,hair_straight_blond,hair,[0],74206,29,,
907,condition1,glossy,parlak,nails_black_glossy,nails,[0.41],3779,30,,
907,condition1,hat-wearing,şapkalı,man2_bearded_hatted,man,[0],1920,31,,
907,condition1,colored,renkli,picture_colored_rectangular,picture,[0.25],4230,32,,
907,condition1,blond,sarı,hair_curly_blonde,hair,[0.36],3330,33,,
907,condition1,bearded,sakallı,man_old_bearded,man,[0],3300,34,,
907,condition1,square,kare,picture_bw_square,picture,[0],8955,35,,
907,condition1,clean,temiz,spoon_metal_clean,spoon,[0.72],15736,36,,
907,condition1,low,alçak,table_metal_low,table,[0.8],2804,37,,
907,condition1,wet,ıslak,shorts_wet_green,shorts,[0],4522,38,,
907,condition1,round,yuvarlak,earring_big_round,earring,[0.14],5183,39,,
907,condition1,dirty,kirli,spoon_metal_dirty,spoon,[0.65],13839,40,,
907,condition1,fat,şişman,woman2_happy_fat,woman,[0.82],1552,41,,
907,condition1,skinny,zayıf,woman2_happy_skinny,woman,[0.86],1769,42,,
907,condition1,open,açık,box_open_cardboard,box,[0],4049,43,,
907,condition1,black,siyah,nails_black_glossy,nails,[0.1],2911,44,,
907,condition1,red,kırmızı,frog_spotted_red,frog,[0.16],2341,45,,
907,condition1,big,büyük,bottle_glass_big,bottle,[0.82],2129,46,,
907,condition1,blue,mavi,pencil_long_blue,pencil,[0.14],2280,47,,
907,condition1,closed,kapalı,box_closed_cardboard,box,[0],2131,48,,
902,condition1,,,,beyaz,Beyaz,0,1,bot_check,
902,condition1,wooden,tahta,spoon_wooden_clean,spoon,[0.4],18728,3,,
902,condition1,spotted,benekli,frog_spotted_green,frog,[0.79],1890,4,,
902,condition1,curly,kıvırcık,hair_curly_blonde,hair,[0.73],1190,5,,
902,condition1,clean-shaven,sakalsız,man_old_cleanshaven,man,[0.26],951,6,,
902,condition1,matte,mat,nails_black_matte,nails,[0.32],857,7,,
902,condition1,low,alçak,table_metal_low,table,[0.66],1196,8,,
902,condition1,fat,şişman,woman2_happy_fat,woman,[0.34],565,9,,
902,condition1,striped,çizgili,frog_striped_green,frog,[0.69],615,10,,
902,condition1,plastic,plastik,bottle_plastic_big,bottle,[0.36],493,11,,
902,condition1,blue,mavi,pencil_long_blue,pencil,[0.69],841,12,,
902,condition1,young,genç,man_young_bearded,man,[0.35],819,13,,
902,condition1,glass,cam,bottle_glass_big,bottle,[0.6],825,14,,
902,condition1,round,yuvarlak,earring_big_round,earring,[0.39],579,15,,
902,condition1,straight,düz,hair_straight_blond,hair,[0.09],805,16,,
902,condition1,green,yeşil,frog_spotted_green,frog,[0.89],824,17,,
902,condition1,dry,kuru,shorts_dry_green,shorts,[0.8],647,18,,
902,condition1,old,yaşlı,man_old_bearded,man,[0.74],640,19,,
902,condition1,cardboard,karton,box_closed_cardboard,box,[0.18],732,20,,
902,condition1,mustache-touting,bıyıklı,man2_mustached_glassed,man,[0.12],1720,21,,
902,condition1,colored,renkli,picture_colored_rectangular,picture,[0.14],640,22,,
902,condition1,sad,mutsuz,woman_old_sad,woman,[0.18],1219,23,,
902,condition1,small,küçük,bottle_glass_small,bottle,[0.16],549,24,,
902,condition1,short,kısa,pencil_short_black,pencil,[0.12],636,25,,
902,condition1,red,kırmızı,frog_spotted_red,frog,[0.96],847,26,,
902,condition1,wet,ıslak,shorts_wet_green,shorts,[1],1887,27,,
902,condition1,hat-wearing,şapkalı,man2_bearded_hatted,man,[0.72],1224,28,,
902,condition1,metal,metal,spoon_metal_clean,spoon,[0.58],714,29,,
902,condition1,black,siyah,nails_black_glossy,nails,[0.58],700,30,,
902,condition1,dirty,kirli,spoon_metal_dirty,spoon,[0.47],552,31,,
902,condition1,glasses-wearing,gözlüklü,man2_bearded_glassed,man,[0.58],863,32,,
902,condition1,high,yüksek,table_metal_high,table,[0.24],572,33,,
902,condition1,skinny,zayıf,woman2_happy_skinny,woman,[0.28],610,34,,
902,condition1,bearded,sakallı,man_old_bearded,man,[0.4],607,35,,
902,condition1,blond,sarı,hair_curly_blonde,hair,[0.52],598,36,,
902,condition1,square,kare,picture_bw_square,picture,[0.65],762,37,,
902,condition1,big,büyük,bottle_glass_big,bottle,[0.13],1009,38,,
902,condition1,brown,kahverengi,hair_curly_brown,hair,[0.82],934,39,,
902,condition1,triangular,üçgen,earring_big_triangular,earring,[0.91],2802,40,,
902,condition1,long,uzun,pencil_long_black,pencil,[0.62],914,41,,
902,condition1,rectangular,dikdörtgen,picture_bw_rectangular,picture,[0.81],1869,42,,
902,condition1,closed,kapalı,box_closed_cardboard,box,[0.58],776,43,,
902,condition1,glossy,parlak,nails_black_glossy,nails,[0.43],892,44,,
902,condition1,open,açık,box_open_cardboard,box,[0.36],610,45,,
902,condition1,black and white,siyah beyaz,picture_bw_rectangular,picture,[0.32],822,46,,
902,condition1,happy,mutlu,woman_old_happy,woman,[0.27],590,47,,
902,condition1,clean,temiz,spoon_metal_clean,spoon,[0.22],1606,48,,
928,condition1,,,,beyaz,Beyaz,0,1,bot_check,
928,condition1,small,küçük,bottle_glass_small,bottle,[0.16],39864,3,,
928,condition1,short,kısa,pencil_short_black,pencil,[0.21],8425,4,,
928,condition1,happy,mutlu,woman_old_happy,woman,[0.64],5155,5,,
928,condition1,young,genç,man_young_bearded,man,[0.29],3594,6,,
928,condition1,dirty,kirli,spoon_metal_dirty,spoon,[0.64],8674,7,,
928,condition1,high,yüksek,table_metal_high,table,[0.65],7637,8,,
928,condition1,old,yaşlı,man_old_bearded,man,[0.28],3914,9,,
928,condition1,mustache-touting,bıyıklı,man2_mustached_glassed,man,[0.46],24137,10,,
928,condition1,rectangular,dikdörtgen,picture_bw_rectangular,picture,[0.09],28755,11,,
928,condition1,low,alçak,table_metal_low,table,[0.18],6798,12,,
928,condition1,plastic,plastik,bottle_plastic_big,bottle,[0.01],5797,13,,
928,condition1,closed,kapalı,box_closed_cardboard,box,[0.04],4957,14,,
928,condition1,wooden,tahta,spoon_wooden_clean,spoon,[0.05],6985,15,,
928,condition1,blond,sarı,hair_curly_blonde,hair,[0.17],3098,16,,
928,condition1,open,açık,box_open_cardboard,box,[0.04],3295,17,,
928,condition1,matte,mat,nails_black_matte,nails,[0.11],3546,18,,
928,condition1,straight,düz,hair_straight_blond,hair,[0.03],3410,19,,
928,condition1,red,kırmızı,frog_spotted_red,frog,[0.06],3340,20,,
928,condition1,curly,kıvırcık,hair_curly_blonde,hair,[0.3],4422,21,,
928,condition1,glossy,parlak,nails_black_glossy,nails,[0.34],5454,22,,
928,condition1,spotted,benekli,frog_spotted_green,frog,[0.47],4790,23,,
928,condition1,clean-shaven,sakalsız,man_old_cleanshaven,man,[0.02],4151,24,,
928,condition1,round,yuvarlak,earring_big_round,earring,[0.01],2727,25,,
928,condition1,clean,temiz,spoon_metal_clean,spoon,[0.35],3215,26,,
928,condition1,hat-wearing,şapkalı,man2_bearded_hatted,man,[0.01],3481,27,,
928,condition1,black and white,siyah beyaz,picture_bw_rectangular,picture,[0.04],3634,28,,
928,condition1,cardboard,karton,box_closed_cardboard,box,[0.06],2758,29,,
928,condition1,green,yeşil,frog_spotted_green,frog,[0.16],2833,30,,
928,condition1,long,uzun,pencil_long_black,pencil,[0.36],3534,31,,
928,condition1,brown,kahverengi,hair_curly_brown,hair,[0.15],3238,32,,
928,condition1,fat,şişman,woman2_happy_fat,woman,[0.08],4931,33,,
928,condition1,square,kare,picture_bw_square,picture,[0.08],2894,34,,
928,condition1,metal,metal,spoon_metal_clean,spoon,[0.02],4966,35,,
928,condition1,glasses-wearing,gözlüklü,man2_bearded_glassed,man,[0],2867,36,,
928,condition1,glass,cam,bottle_glass_big,bottle,[0.01],2570,37,,
928,condition1,bearded,sakallı,man_old_bearded,man,[0.03],2672,38,,
928,condition1,sad,mutsuz,woman_old_sad,woman,[0.78],6302,39,,
928,condition1,skinny,zayıf,woman2_happy_skinny,woman,[0.33],2863,40,,
928,condition1,black,siyah,nails_black_glossy,nails,[0.04],2883,41,,
928,condition1,blue,mavi,pencil_long_blue,pencil,[0.19],3327,42,,
928,condition1,big,büyük,bottle_glass_big,bottle,[0.32],2765,43,,
928,condition1,striped,çizgili,frog_striped_green,frog,[0.02],4508,44,,
928,condition1,colored,renkli,picture_colored_rectangular,picture,[0.07],3075,45,,
928,condition1,triangular,üçgen,earring_big_triangular,earring,[0.02],4786,46,,
928,condition1,dry,kuru,shorts_dry_green,shorts,[0.23],3053,47,,
928,condition1,wet,ıslak,shorts_wet_green,shorts,[0.14],3988,48,,
920,condition1,,,,beyaz,Süt,0,1,bot_check,
920,condition1,,,,beyaz,Süt,0,1,bot_check,
920,condition1,,,,beyaz,Beyaz,0,1,bot_check,
920,condition1,young,genç,man_young_bearded,man,[0.53],12976,3,,
920,condition1,closed,kapalı,box_closed_cardboard,box,[0.48],2273,4,,
920,condition1,metal,metal,spoon_metal_clean,spoon,[0.78],3350,5,,
920,condition1,long,uzun,pencil_long_black,pencil,[0.63],1994,6,,
920,condition1,glasses-wearing,gözlüklü,man2_bearded_glassed,man,[0.53],1934,7,,
920,condition1,high,yüksek,table_metal_high,table,[0.56],1812,8,,
920,condition1,cardboard,karton,box_closed_cardboard,box,[0.6],1594,9,,
920,condition1,colored,renkli,picture_colored_rectangular,picture,[0.81],3454,10,,
920,condition1,straight,düz,hair_straight_blond,hair,[0.73],1463,11,,
920,condition1,plastic,plastik,bottle_plastic_big,bottle,[0.73],2799,12,,
920,condition1,black and white,siyah beyaz,picture_bw_rectangular,picture,[0.85],2311,13,,
920,condition1,glass,cam,bottle_glass_big,bottle,[0.83],1411,14,,
920,condition1,wooden,tahta,spoon_wooden_clean,spoon,[0.65],1474,15,,
920,condition1,dirty,kirli,spoon_metal_dirty,spoon,[0.6],2823,16,,
920,condition1,rectangular,dikdörtgen,picture_bw_rectangular,picture,[0.68],1550,17,,
920,condition1,low,alçak,table_metal_low,table,[0.63],1734,18,,
920,condition1,glossy,parlak,nails_black_glossy,nails,[0.69],1310,19,,
920,condition1,blond,sarı,hair_curly_blonde,hair,[0.65],1648,20,,
920,condition1,striped,çizgili,frog_striped_green,frog,[0.68],1876,21,,
920,condition1,matte,mat,nails_black_matte,nails,[0.81],2079,22,,
920,condition1,curly,kıvırcık,hair_curly_blonde,hair,[0.84],1349,23,,
920,condition1,happy,mutlu,woman_old_happy,woman,[0.69],1433,24,,
920,condition1,triangular,üçgen,earring_big_triangular,earring,[0.74],1345,25,,
920,condition1,round,yuvarlak,earring_big_round,earring,[0.5],1611,26,,
920,condition1,green,yeşil,frog_spotted_green,frog,[0.72],1581,27,,
920,condition1,spotted,benekli,frog_spotted_green,frog,[0.74],4357,28,,
920,condition1,fat,şişman,woman2_happy_fat,woman,[0.81],1975,29,,
920,condition1,bearded,sakallı,man_old_bearded,man,[0.64],1854,30,,
920,condition1,dry,kuru,shorts_dry_green,shorts,[0.73],2744,31,,
920,condition1,brown,kahverengi,hair_curly_brown,hair,[0.66],2703,32,,
920,condition1,sad,mutsuz,woman_old_sad,woman,[0.58],2701,33,,
920,condition1,square,kare,picture_bw_square,picture,[0.54],8180,34,,
920,condition1,big,büyük,bottle_glass_big,bottle,[0.73],2642,35,,
920,condition1,hat-wearing,şapkalı,man2_bearded_hatted,man,[0.78],1960,36,,
920,condition1,mustache-touting,bıyıklı,man2_mustached_glassed,man,[0.76],1568,37,,
920,condition1,short,kısa,pencil_short_black,pencil,[0.7],2859,38,,
920,condition1,wet,ıslak,shorts_wet_green,shorts,[0.63],3243,39,,
920,condition1,black,siyah,nails_black_glossy,nails,[0.7],1579,40,,
920,condition1,clean,temiz,spoon_metal_clean,spoon,[0.75],1437,41,,
920,condition1,red,kırmızı,frog_spotted_red,frog,[0.67],5235,42,,
920,condition1,clean-shaven,sakalsız,man_old_cleanshaven,man,[0.91],1725,43,,
920,condition1,skinny,zayıf,woman2_happy_skinny,woman,[0.59],1474,44,,
920,condition1,open,açık,box_open_cardboard,box,[0.82],3252,45,,
920,condition1,old,yaşlı,man_old_bearded,man,[0.73],6693,46,,
920,condition1,small,küçük,bottle_glass_small,bottle,[0.82],1386,47,,
920,condition1,blue,mavi,pencil_long_blue,pencil,[0.64],2469,48,,
892,condition1,,,,beyaz,Beyaz,0,1,bot_check,
892,condition1,curly,kıvırcık,hair_curly_blonde,hair,[0],39854,3,,
892,condition1,straight,düz,hair_straight_blond,hair,[0],3092,4,,
892,condition1,hat-wearing,şapkalı,man2_bearded_hatted,man,[0],12108,5,,
892,condition1,green,yeşil,frog_spotted_green,frog,[0],7690,6,,
892,condition1,young,genç,man_young_bearded,man,[0.93],12048,7,,
892,condition1,old,yaşlı,man_old_bearded,man,[0.95],2120,8,,
892,condition1,glossy,parlak,nails_black_glossy,nails,[0.86],6670,9,,
892,condition1,rectangular,dikdörtgen,picture_bw_rectangular,picture,[0],2086,10,,
892,condition1,low,alçak,table_metal_low,table,[0.8],5294,11,,
892,condition1,dirty,kirli,spoon_metal_dirty,spoon,[0.85],4023,12,,
892,condition1,happy,mutlu,woman_old_happy,woman,[1],4270,13,,
892,condition1,metal,metal,spoon_metal_clean,spoon,[0],2319,14,,
892,condition1,open,açık,box_open_cardboard,box,[0.18],7218,15,,
892,condition1,plastic,plastik,bottle_plastic_big,bottle,[0],1908,16,,
892,condition1,closed,kapalı,box_closed_cardboard,box,[0],2644,17,,
892,condition1,colored,renkli,picture_colored_rectangular,picture,[0.17],6520,18,,
892,condition1,spotted,benekli,frog_spotted_green,frog,[0.05],5322,19,,
892,condition1,blond,sarı,hair_curly_blonde,hair,[0],1754,20,,
892,condition1,bearded,sakallı,man_old_bearded,man,[0],2830,21,,
892,condition1,clean,temiz,spoon_metal_clean,spoon,[0.76],5064,22,,
892,condition1,sad,mutsuz,woman_old_sad,woman,[0.87],2328,23,,
892,condition1,small,küçük,bottle_glass_small,bottle,[0.68],3376,24,,
892,condition1,black,siyah,nails_black_glossy,nails,[0],2155,25,,
892,condition1,brown,kahverengi,hair_curly_brown,hair,[0],1709,26,,
892,condition1,matte,mat,nails_black_matte,nails,[0.69],3246,27,,
892,condition1,wooden,tahta,spoon_wooden_clean,spoon,[0],1760,28,,
892,condition1,glasses-wearing,gözlüklü,man2_bearded_glassed,man,[0],2952,29,,
892,condition1,fat,şişman,woman2_happy_fat,woman,[0.83],5176,30,,
892,condition1,clean-shaven,sakalsız,man_old_cleanshaven,man,[0],1822,31,,
892,condition1,blue,mavi,pencil_long_blue,pencil,[0.13],3315,32,,
892,condition1,striped,çizgili,frog_striped_green,frog,[0.65],3936,33,,
892,condition1,high,yüksek,table_metal_high,table,[0.92],2664,34,,
892,condition1,triangular,üçgen,earring_big_triangular,earring,[0],1758,35,,
892,condition1,black and white,siyah beyaz,picture_bw_rectangular,picture,[0],4772,36,,
892,condition1,glass,cam,bottle_glass_big,bottle,[0],2044,37,,
892,condition1,square,kare,picture_bw_square,picture,[0],1468,38,,
892,condition1,wet,ıslak,shorts_wet_green,shorts,[0.4],8676,39,,
892,condition1,red,kırmızı,frog_spotted_red,frog,[0.41],2703,40,,
892,condition1,short,kısa,pencil_short_black,pencil,[0.69],5013,41,,
892,condition1,big,büyük,bottle_glass_big,bottle,[0.85],1840,42,,
892,condition1,long,uzun,pencil_long_black,pencil,[0.88],1746,43,,
892,condition1,round,yuvarlak,earring_big_round,earring,[0],1796,44,,
892,condition1,mustache-touting,bıyıklı,man2_mustached_glassed,man,[0],1528,45,,
892,condition1,skinny,zayıf,woman2_happy_skinny,woman,[0.77],2516,46,,
892,condition1,cardboard,karton,box_closed_cardboard,box,[0],1717,47,,
892,condition1,dry,kuru,shorts_dry_green,shorts,[0.61],5628,48,,
886,condition1,,,,beyaz,beyaz,0,1,bot_check,
886,condition1,glasses-wearing,gözlüklü,man2_bearded_glassed,man,[0.66],12183,3,,
886,condition1,black and white,siyah beyaz,picture_bw_rectangular,picture,[0],4608,4,,
886,condition1,closed,kapalı,box_closed_cardboard,box,[0.19],3189,5,,
886,condition1,high,yüksek,table_metal_high,table,[0.4],5792,6,,
886,condition1,mustache-touting,bıyıklı,man2_mustached_glassed,man,[0.19],3894,7,,
886,condition1,rectangular,dikdörtgen,picture_bw_rectangular,picture,[0],2092,8,,
886,condition1,curly,kıvırcık,hair_curly_blonde,hair,[0.17],3204,9,,
886,condition1,straight,düz,hair_straight_blond,hair,[0.08],2009,10,,
886,condition1,clean,temiz,spoon_metal_clean,spoon,[0.29],1800,11,,
886,condition1,striped,çizgili,frog_striped_green,frog,[0.19],1816,12,,
886,condition1,glossy,parlak,nails_black_glossy,nails,[0.21],1809,13,,
886,condition1,wooden,tahta,spoon_wooden_clean,spoon,[0],1888,14,,
886,condition1,green,yeşil,frog_spotted_green,frog,[0],1512,15,,
886,condition1,young,genç,man_young_bearded,man,[0.17],2104,16,,
886,condition1,blond,sarı,hair_curly_blonde,hair,[0],2209,17,,
886,condition1,brown,kahverengi,hair_curly_brown,hair,[0],1446,18,,
886,condition1,wet,ıslak,shorts_wet_green,shorts,[0.07],2042,19,,
886,condition1,happy,mutlu,woman_old_happy,woman,[0.84],2494,20,,
886,condition1,plastic,plastik,bottle_plastic_big,bottle,[0],1591,21,,
886,condition1,matte,mat,nails_black_matte,nails,[0],1560,22,,
886,condition1,skinny,zayıf,woman2_happy_skinny,woman,[0.23],1833,23,,
886,condition1,hat-wearing,şapkalı,man2_bearded_hatted,man,[0],3534,24,,
886,condition1,square,kare,picture_bw_square,picture,[0],1551,25,,
886,condition1,red,kırmızı,frog_spotted_red,frog,[0],1503,26,,
886,condition1,metal,metal,spoon_metal_clean,spoon,[0],1437,27,,
886,condition1,black,siyah,nails_black_glossy,nails,[0],1407,28,,
886,condition1,short,kısa,pencil_short_black,pencil,[0.1],2488,29,,
886,condition1,dry,kuru,shorts_dry_green,shorts,[0],1968,30,,
886,condition1,fat,şişman,woman2_happy_fat,woman,[0.19],1576,31,,
886,condition1,round,yuvarlak,earring_big_round,earring,[0],1679,32,,
886,condition1,glass,cam,bottle_glass_big,bottle,[0],1377,33,,
886,condition1,open,açık,box_open_cardboard,box,[0.37],2832,34,,
886,condition1,cardboard,karton,box_closed_cardboard,box,[0],1521,35,,
886,condition1,long,uzun,pencil_long_black,pencil,[0.24],1685,36,,
886,condition1,bearded,sakallı,man_old_bearded,man,[0.16],2785,37,,
886,condition1,blue,mavi,pencil_long_blue,pencil,[0],2020,38,,
886,condition1,low,alçak,table_metal_low,table,[0.4],3457,39,,
886,condition1,small,küçük,bottle_glass_small,bottle,[0.32],1592,40,,
886,condition1,dirty,kirli,spoon_metal_dirty,spoon,[0.37],1964,41,,
886,condition1,big,büyük,bottle_glass_big,bottle,[0.31],1320,42,,
886,condition1,triangular,üçgen,earring_big_triangular,earring,[0],2128,43,,
886,condition1,old,yaşlı,man_old_bearded,man,[0.25],2608,44,,
886,condition1,spotted,benekli,frog_spotted_green,frog,[0.06],2736,45,,
886,condition1,sad,mutsuz,woman_old_sad,woman,[0.76],1896,46,,
886,condition1,colored,renkli,picture_colored_rectangular,picture,[0.1],1815,47,,
886,condition1,clean-shaven,sakalsız,man_old_cleanshaven,man,[0.06],2361,48,,
931,condition1,,,,beyaz,beyaz,0,1,bot_check,
931,condition1,plastic,plastik,bottle_plastic_big,bottle,[0],11386,3,,
931,condition1,mustache-touting,bıyıklı,man2_mustached_glassed,man,[1],7241,4,,
931,condition1,matte,mat,nails_black_matte,nails,[0.17],16738,5,,
931,condition1,glass,cam,bottle_glass_big,bottle,[0],5622,6,,
931,condition1,round,yuvarlak,earring_big_round,earring,[0.21],5448,7,,
931,condition1,colored,renkli,picture_colored_rectangular,picture,[0.15],3556,8,,
931,condition1,glossy,parlak,nails_black_glossy,nails,[0.07],4314,9,,
931,condition1,short,kısa,pencil_short_black,pencil,[0.49],5984,10,,
931,condition1,blond,sarı,hair_curly_blonde,hair,[0],9267,11,,
931,condition1,small,küçük,bottle_glass_small,bottle,[0.48],5796,12,,
931,condition1,clean-shaven,sakalsız,man_old_cleanshaven,man,[0.75],7665,13,,
931,condition1,triangular,üçgen,earring_big_triangular,earring,[0.15],2319,14,,
931,condition1,blue,mavi,pencil_long_blue,pencil,[0],10522,15,,
931,condition1,green,yeşil,frog_spotted_green,frog,[0],2842,16,,
931,condition1,brown,kahverengi,hair_curly_brown,hair,[0],2452,17,,
931,condition1,sad,mutsuz,woman_old_sad,woman,[1],3161,18,,
931,condition1,striped,çizgili,frog_striped_green,frog,[0.26],3609,19,,
931,condition1,long,uzun,pencil_long_black,pencil,[0.55],4715,20,,
931,condition1,hat-wearing,şapkalı,man2_bearded_hatted,man,[0.1],3746,21,,
931,condition1,low,alçak,table_metal_low,table,[0.35],5898,22,,
931,condition1,big,büyük,bottle_glass_big,bottle,[0.48],3281,23,,
931,condition1,square,kare,picture_bw_square,picture,[0],2959,24,,
931,condition1,rectangular,dikdörtgen,picture_bw_rectangular,picture,[0],1877,25,,
931,condition1,clean,temiz,spoon_metal_clean,spoon,[0.24],11659,26,,
931,condition1,dry,kuru,shorts_dry_green,shorts,[0.06],6297,27,,
931,condition1,glasses-wearing,gözlüklü,man2_bearded_glassed,man,[0],3425,28,,
931,condition1,bearded,sakallı,man_old_bearded,man,[0.1],13419,29,,
931,condition1,black,siyah,nails_black_glossy,nails,[0],2061,30,,
931,condition1,black and white,siyah beyaz,picture_bw_rectangular,picture,[0],1943,31,,
931,condition1,straight,düz,hair_straight_blond,hair,[0.11],3510,32,,
931,condition1,fat,şişman,woman2_happy_fat,woman,[0.71],3116,33,,
931,condition1,open,açık,box_open_cardboard,box,[0.49],4296,34,,
931,condition1,metal,metal,spoon_metal_clean,spoon,[0.1],3525,35,,
931,condition1,old,yaşlı,man_old_bearded,man,[0.69],3580,36,,
931,condition1,wet,ıslak,shorts_wet_green,shorts,[0.14],2063,37,,
931,condition1,skinny,zayıf,woman2_happy_skinny,woman,[0.76],3454,38,,
931,condition1,closed,kapalı,box_closed_cardboard,box,[0.5],9146,39,,
931,condition1,young,genç,man_young_bearded,man,[0.72],2771,40,,
931,condition1,spotted,benekli,frog_spotted_green,frog,[0.11],4438,41,,
931,condition1,dirty,kirli,spoon_metal_dirty,spoon,[0.17],2593,42,,
931,condition1,high,yüksek,table_metal_high,table,[0.49],4260,43,,
931,condition1,happy,mutlu,woman_old_happy,woman,[1],3154,44,,
931,condition1,red,kırmızı,frog_spotted_red,frog,[0],3265,45,,
931,condition1,cardboard,karton,box_closed_cardboard,box,[0],11802,46,,
931,condition1,curly,kıvırcık,hair_curly_blonde,hair,[0.11],3951,47,,
931,condition1,wooden,tahta,spoon_wooden_clean,spoon,[0.03],4983,48,,
