workerid,proliferate.condition,adj,label,object,response,rt,slide_number_in_experiment,utterance,catch_trials,subject_information.age,subject_information.asses,subject_information.comments,subject_information.education,subject_information.enjoyment,subject_information.gender,subject_information.language,system.Browser,system.OS,system.screenH,system.screenW,time_in_minutes,error
116,condition1,,,Jessica,Jessica,0,1,bot_check,[],33,Yes,Very interesting. I enjoyed this.,4,2,Male,English,Chrome,Mac,800,1280,3.098433333333334,
116,condition1,straight,hair_straight_blond,hair,[0.25],7234,3,,[],33,Yes,Very interesting. I enjoyed this.,4,2,Male,English,Chrome,Mac,800,1280,3.098433333333334,
116,condition1,long,pencil_long_black,pencil,[0.89],4382,4,,[],33,Yes,Very interesting. I enjoyed this.,4,2,Male,English,Chrome,Mac,800,1280,3.098433333333334,
116,condition1,fat,woman2_happy_fat,woman,[1],3887,5,,[],33,Yes,Very interesting. I enjoyed this.,4,2,Male,English,Chrome,Mac,800,1280,3.098433333333334,
116,condition1,old,man_old_bearded,man,[0.74],2589,6,,[],33,Yes,Very interesting. I enjoyed this.,4,2,Male,English,Chrome,Mac,800,1280,3.098433333333334,
116,condition1,spotted,frog_spotted_green,frog,[0.16],5444,7,,[],33,Yes,Very interesting. I enjoyed this.,4,2,Male,English,Chrome,Mac,800,1280,3.098433333333334,
116,condition1,cardboard,box_closed_cardboard,box,[0.11],5693,8,,[],33,Yes,Very interesting. I enjoyed this.,4,2,Male,English,Chrome,Mac,800,1280,3.098433333333334,
116,condition1,colored,picture_colored_rectangular,picture,[0.15],5532,9,,[],33,Yes,Very interesting. I enjoyed this.,4,2,Male,English,Chrome,Mac,800,1280,3.098433333333334,
116,condition1,dry,shorts_dry_green,shorts,[0.35],4750,10,,[],33,Yes,Very interesting. I enjoyed this.,4,2,Male,English,Chrome,Mac,800,1280,3.098433333333334,
116,condition1,open,box_open_cardboard,box,[0.42],3034,11,,[],33,Yes,Very interesting. I enjoyed this.,4,2,Male,English,Chrome,Mac,800,1280,3.098433333333334,
116,condition1,clean-shaven,man_old_cleanshaven,man,[0.07],3458,12,,[],33,Yes,Very interesting. I enjoyed this.,4,2,Male,English,Chrome,Mac,800,1280,3.098433333333334,
116,condition1,clean,spoon_metal_clean,spoon,[0.82],3694,13,,[],33,Yes,Very interesting. I enjoyed this.,4,2,Male,English,Chrome,Mac,800,1280,3.098433333333334,
116,condition1,sad,woman_old_sad,woman,[1],2346,14,,[],33,Yes,Very interesting. I enjoyed this.,4,2,Male,English,Chrome,Mac,800,1280,3.098433333333334,
116,condition1,blue,pencil_long_blue,pencil,[0.25],4924,15,,[],33,Yes,Very interesting. I enjoyed this.,4,2,Male,English,Chrome,Mac,800,1280,3.098433333333334,
116,condition1,curly,hair_curly_blonde,hair,[0.16],2730,16,,[],33,Yes,Very interesting. I enjoyed this.,4,2,Male,English,Chrome,Mac,800,1280,3.098433333333334,
116,condition1,young,man_young_bearded,man,[0.94],2436,17,,[],33,Yes,Very interesting. I enjoyed this.,4,2,Male,English,Chrome,Mac,800,1280,3.098433333333334,
116,condition1,green,frog_spotted_green,frog,[0.17],1950,18,,[],33,Yes,Very interesting. I enjoyed this.,4,2,Male,English,Chrome,Mac,800,1280,3.098433333333334,
116,condition1,dirty,spoon_metal_dirty,spoon,[1],2562,19,,[],33,Yes,Very interesting. I enjoyed this.,4,2,Male,English,Chrome,Mac,800,1280,3.098433333333334,
116,condition1,red,frog_spotted_red,frog,[0.17],4242,20,,[],33,Yes,Very interesting. I enjoyed this.,4,2,Male,English,Chrome,Mac,800,1280,3.098433333333334,
116,condition1,happy,woman_old_happy,woman,[1],1904,21,,[],33,Yes,Very interesting. I enjoyed this.,4,2,Male,English,Chrome,Mac,800,1280,3.098433333333334,
116,condition1,black and white,picture_bw_rectangular,picture,[0.74],5294,22,,[],33,Yes,Very interesting. I enjoyed this.,4,2,Male,English,Chrome,Mac,800,1280,3.098433333333334,
116,condition1,metal,spoon_metal_clean,spoon,[0.08],5052,23,,[],33,Yes,Very interesting. I enjoyed this.,4,2,Male,English,Chrome,Mac,800,1280,3.098433333333334,
116,condition1,round,earring_big_round,earring,[0.07],2700,24,,[],33,Yes,Very interesting. I enjoyed this.,4,2,Male,English,Chrome,Mac,800,1280,3.098433333333334,
116,condition1,bearded,man_old_bearded,man,[0.2],2490,25,,[],33,Yes,Very interesting. I enjoyed this.,4,2,Male,English,Chrome,Mac,800,1280,3.098433333333334,
116,condition1,mustache-touting,man2_mustached_glassed,man,[0.1],3518,26,,[],33,Yes,Very interesting. I enjoyed this.,4,2,Male,English,Chrome,Mac,800,1280,3.098433333333334,
116,condition1,square,picture_bw_square,picture,[0.11],3002,27,,[],33,Yes,Very interesting. I enjoyed this.,4,2,Male,English,Chrome,Mac,800,1280,3.098433333333334,
116,condition1,blond,hair_curly_blonde,hair,[0.28],2924,28,,[],33,Yes,Very interesting. I enjoyed this.,4,2,Male,English,Chrome,Mac,800,1280,3.098433333333334,
116,condition1,short,pencil_short_black,pencil,[0.71],2530,29,,[],33,Yes,Very interesting. I enjoyed this.,4,2,Male,English,Chrome,Mac,800,1280,3.098433333333334,
116,condition1,striped,frog_striped_green,frog,[0.15],3455,30,,[],33,Yes,Very interesting. I enjoyed this.,4,2,Male,English,Chrome,Mac,800,1280,3.098433333333334,
116,condition1,closed,box_closed_cardboard,box,[0.48],3802,31,,[],33,Yes,Very interesting. I enjoyed this.,4,2,Male,English,Chrome,Mac,800,1280,3.098433333333334,
116,condition1,hat-wearing,man2_bearded_hatted,man,[0.01],2471,32,,[],33,Yes,Very interesting. I enjoyed this.,4,2,Male,English,Chrome,Mac,800,1280,3.098433333333334,
116,condition1,plastic,bottle_plastic_big,bottle,[0.45],3289,33,,[],33,Yes,Very interesting. I enjoyed this.,4,2,Male,English,Chrome,Mac,800,1280,3.098433333333334,
116,condition1,glossy,nails_black_glossy,nails,[0.42],2506,34,,[],33,Yes,Very interesting. I enjoyed this.,4,2,Male,English,Chrome,Mac,800,1280,3.098433333333334,
116,condition1,high,table_metal_high,table,[0.89],2274,35,,[],33,Yes,Very interesting. I enjoyed this.,4,2,Male,English,Chrome,Mac,800,1280,3.098433333333334,
116,condition1,glasses-wearing,man2_bearded_glassed,man,[0.06],2452,36,,[],33,Yes,Very interesting. I enjoyed this.,4,2,Male,English,Chrome,Mac,800,1280,3.098433333333334,
116,condition1,rectangular,picture_bw_rectangular,picture,[0.08],3018,37,,[],33,Yes,Very interesting. I enjoyed this.,4,2,Male,English,Chrome,Mac,800,1280,3.098433333333334,
116,condition1,black,nails_black_glossy,nails,[0.05],3982,38,,[],33,Yes,Very interesting. I enjoyed this.,4,2,Male,English,Chrome,Mac,800,1280,3.098433333333334,
116,condition1,wooden,spoon_wooden_clean,spoon,[0.21],2696,39,,[],33,Yes,Very interesting. I enjoyed this.,4,2,Male,English,Chrome,Mac,800,1280,3.098433333333334,
116,condition1,skinny,woman2_happy_skinny,woman,[0.91],3424,40,,[],33,Yes,Very interesting. I enjoyed this.,4,2,Male,English,Chrome,Mac,800,1280,3.098433333333334,
116,condition1,wet,shorts_wet_green,shorts,[0.51],3020,41,,[],33,Yes,Very interesting. I enjoyed this.,4,2,Male,English,Chrome,Mac,800,1280,3.098433333333334,
116,condition1,matte,nails_black_matte,nails,[0.32],2663,42,,[],33,Yes,Very interesting. I enjoyed this.,4,2,Male,English,Chrome,Mac,800,1280,3.098433333333334,
116,condition1,big,bottle_glass_big,bottle,[0.96],2441,43,,[],33,Yes,Very interesting. I enjoyed this.,4,2,Male,English,Chrome,Mac,800,1280,3.098433333333334,
116,condition1,small,bottle_glass_small,bottle,[0.99],2140,44,,[],33,Yes,Very interesting. I enjoyed this.,4,2,Male,English,Chrome,Mac,800,1280,3.098433333333334,
116,condition1,glass,bottle_glass_big,bottle,[0.09],2096,45,,[],33,Yes,Very interesting. I enjoyed this.,4,2,Male,English,Chrome,Mac,800,1280,3.098433333333334,
116,condition1,low,table_metal_low,table,[0.92],3651,46,,[],33,Yes,Very interesting. I enjoyed this.,4,2,Male,English,Chrome,Mac,800,1280,3.098433333333334,
116,condition1,brown,hair_curly_brown,hair,[0.16],3679,47,,[],33,Yes,Very interesting. I enjoyed this.,4,2,Male,English,Chrome,Mac,800,1280,3.098433333333334,
116,condition1,triangular,earring_big_triangular,earring,[0.05],2271,48,,[],33,Yes,Very interesting. I enjoyed this.,4,2,Male,English,Chrome,Mac,800,1280,3.098433333333334,
20,condition1,,,Barbara,barbara,0,1,bot_check,[],27,Yes,sure,3,1,Male,english,Chrome,Mac,900,1440,2.36715,
20,condition1,glossy,nails_black_glossy,nails,[0.52],9222,3,,[],27,Yes,sure,3,1,Male,english,Chrome,Mac,900,1440,2.36715,
20,condition1,brown,hair_curly_brown,hair,[0.5],2888,4,,[],27,Yes,sure,3,1,Male,english,Chrome,Mac,900,1440,2.36715,
20,condition1,low,table_metal_low,table,[0.16],5452,5,,[],27,Yes,sure,3,1,Male,english,Chrome,Mac,900,1440,2.36715,
20,condition1,triangular,earring_big_triangular,earring,[0.81],3281,6,,[],27,Yes,sure,3,1,Male,english,Chrome,Mac,900,1440,2.36715,
20,condition1,cardboard,box_closed_cardboard,box,[0.7],2186,7,,[],27,Yes,sure,3,1,Male,english,Chrome,Mac,900,1440,2.36715,
20,condition1,wet,shorts_wet_green,shorts,[0.99],4403,8,,[],27,Yes,sure,3,1,Male,english,Chrome,Mac,900,1440,2.36715,
20,condition1,fat,woman2_happy_fat,woman,[0.97],1823,9,,[],27,Yes,sure,3,1,Male,english,Chrome,Mac,900,1440,2.36715,
20,condition1,glasses-wearing,man2_bearded_glassed,man,[0.01],2847,10,,[],27,Yes,sure,3,1,Male,english,Chrome,Mac,900,1440,2.36715,
20,condition1,big,bottle_glass_big,bottle,[0.94],2524,11,,[],27,Yes,sure,3,1,Male,english,Chrome,Mac,900,1440,2.36715,
20,condition1,striped,frog_striped_green,frog,[0.73],2102,12,,[],27,Yes,sure,3,1,Male,english,Chrome,Mac,900,1440,2.36715,
20,condition1,blue,pencil_long_blue,pencil,[0.5],2795,13,,[],27,Yes,sure,3,1,Male,english,Chrome,Mac,900,1440,2.36715,
20,condition1,short,pencil_short_black,pencil,[0.49],1381,14,,[],27,Yes,sure,3,1,Male,english,Chrome,Mac,900,1440,2.36715,
20,condition1,high,table_metal_high,table,[0.5],1177,15,,[],27,Yes,sure,3,1,Male,english,Chrome,Mac,900,1440,2.36715,
20,condition1,bearded,man_old_bearded,man,[0.5],6429,16,,[],27,Yes,sure,3,1,Male,english,Chrome,Mac,900,1440,2.36715,
20,condition1,closed,box_closed_cardboard,box,[0.95],2959,17,,[],27,Yes,sure,3,1,Male,english,Chrome,Mac,900,1440,2.36715,
20,condition1,rectangular,picture_bw_rectangular,picture,[0.8],2319,18,,[],27,Yes,sure,3,1,Male,english,Chrome,Mac,900,1440,2.36715,
20,condition1,dry,shorts_dry_green,shorts,[0.58],1793,19,,[],27,Yes,sure,3,1,Male,english,Chrome,Mac,900,1440,2.36715,
20,condition1,metal,spoon_metal_clean,spoon,[0.54],1674,20,,[],27,Yes,sure,3,1,Male,english,Chrome,Mac,900,1440,2.36715,
20,condition1,young,man_young_bearded,man,[0.42],1406,21,,[],27,Yes,sure,3,1,Male,english,Chrome,Mac,900,1440,2.36715,
20,condition1,curly,hair_curly_blonde,hair,[0.67],2653,22,,[],27,Yes,sure,3,1,Male,english,Chrome,Mac,900,1440,2.36715,
20,condition1,blond,hair_curly_blonde,hair,[0.73],1661,23,,[],27,Yes,sure,3,1,Male,english,Chrome,Mac,900,1440,2.36715,
20,condition1,glass,bottle_glass_big,bottle,[0.53],3768,24,,[],27,Yes,sure,3,1,Male,english,Chrome,Mac,900,1440,2.36715,
20,condition1,dirty,spoon_metal_dirty,spoon,[0.51],6597,25,,[],27,Yes,sure,3,1,Male,english,Chrome,Mac,900,1440,2.36715,
20,condition1,clean-shaven,man_old_cleanshaven,man,[0.51],1927,26,,[],27,Yes,sure,3,1,Male,english,Chrome,Mac,900,1440,2.36715,
20,condition1,square,picture_bw_square,picture,[0.99],2186,27,,[],27,Yes,sure,3,1,Male,english,Chrome,Mac,900,1440,2.36715,
20,condition1,open,box_open_cardboard,box,[0.9],2584,28,,[],27,Yes,sure,3,1,Male,english,Chrome,Mac,900,1440,2.36715,
20,condition1,green,frog_spotted_green,frog,[0.76],1169,29,,[],27,Yes,sure,3,1,Male,english,Chrome,Mac,900,1440,2.36715,
20,condition1,sad,woman_old_sad,woman,[0.6],978,30,,[],27,Yes,sure,3,1,Male,english,Chrome,Mac,900,1440,2.36715,
20,condition1,small,bottle_glass_small,bottle,[0.44],1197,31,,[],27,Yes,sure,3,1,Male,english,Chrome,Mac,900,1440,2.36715,
20,condition1,long,pencil_long_black,pencil,[0.44],9308,32,,[],27,Yes,sure,3,1,Male,english,Chrome,Mac,900,1440,2.36715,
20,condition1,spotted,frog_spotted_green,frog,[0.52],1459,33,,[],27,Yes,sure,3,1,Male,english,Chrome,Mac,900,1440,2.36715,
20,condition1,black and white,picture_bw_rectangular,picture,[0.57],1016,34,,[],27,Yes,sure,3,1,Male,english,Chrome,Mac,900,1440,2.36715,
20,condition1,black,nails_black_glossy,nails,[0.6],1221,35,,[],27,Yes,sure,3,1,Male,english,Chrome,Mac,900,1440,2.36715,
20,condition1,clean,spoon_metal_clean,spoon,[0.74],1122,36,,[],27,Yes,sure,3,1,Male,english,Chrome,Mac,900,1440,2.36715,
20,condition1,red,frog_spotted_red,frog,[0.73],1033,37,,[],27,Yes,sure,3,1,Male,english,Chrome,Mac,900,1440,2.36715,
20,condition1,mustache-touting,man2_mustached_glassed,man,[0.58],1356,38,,[],27,Yes,sure,3,1,Male,english,Chrome,Mac,900,1440,2.36715,
20,condition1,plastic,bottle_plastic_big,bottle,[0.61],1836,39,,[],27,Yes,sure,3,1,Male,english,Chrome,Mac,900,1440,2.36715,
20,condition1,straight,hair_straight_blond,hair,[0.5],7466,40,,[],27,Yes,sure,3,1,Male,english,Chrome,Mac,900,1440,2.36715,
20,condition1,skinny,woman2_happy_skinny,woman,[0.54],1619,41,,[],27,Yes,sure,3,1,Male,english,Chrome,Mac,900,1440,2.36715,
20,condition1,wooden,spoon_wooden_clean,spoon,[0.72],1401,42,,[],27,Yes,sure,3,1,Male,english,Chrome,Mac,900,1440,2.36715,
20,condition1,round,earring_big_round,earring,[0.34],1631,43,,[],27,Yes,sure,3,1,Male,english,Chrome,Mac,900,1440,2.36715,
20,condition1,colored,picture_colored_rectangular,picture,[0.42],1330,44,,[],27,Yes,sure,3,1,Male,english,Chrome,Mac,900,1440,2.36715,
20,condition1,hat-wearing,man2_bearded_hatted,man,[0.27],2014,45,,[],27,Yes,sure,3,1,Male,english,Chrome,Mac,900,1440,2.36715,
20,condition1,matte,nails_black_matte,nails,[0.3],1939,46,,[],27,Yes,sure,3,1,Male,english,Chrome,Mac,900,1440,2.36715,
20,condition1,old,man_old_bearded,man,[0.39],1562,47,,[],27,Yes,sure,3,1,Male,english,Chrome,Mac,900,1440,2.36715,
20,condition1,happy,woman_old_happy,woman,[0.29],1438,48,,[],27,Yes,sure,3,1,Male,english,Chrome,Mac,900,1440,2.36715,
47,condition1,,,Susan,Susan,0,1,bot_check,[],22,Yes,,2,1,Male,English,Chrome,Windows,1080,1920,2.9890166666666667,
47,condition1,round,earring_big_round,earring,[0.16],17213,3,,[],22,Yes,,2,1,Male,English,Chrome,Windows,1080,1920,2.9890166666666667,
47,condition1,green,frog_spotted_green,frog,[0],3809,4,,[],22,Yes,,2,1,Male,English,Chrome,Windows,1080,1920,2.9890166666666667,
47,condition1,long,pencil_long_black,pencil,[1],5180,5,,[],22,Yes,,2,1,Male,English,Chrome,Windows,1080,1920,2.9890166666666667,
47,condition1,fat,woman2_happy_fat,woman,[0.75],5128,6,,[],22,Yes,,2,1,Male,English,Chrome,Windows,1080,1920,2.9890166666666667,
47,condition1,dirty,spoon_metal_dirty,spoon,[0.75],3013,7,,[],22,Yes,,2,1,Male,English,Chrome,Windows,1080,1920,2.9890166666666667,
47,condition1,skinny,woman2_happy_skinny,woman,[0.71],1537,8,,[],22,Yes,,2,1,Male,English,Chrome,Windows,1080,1920,2.9890166666666667,
47,condition1,curly,hair_curly_blonde,hair,[0.79],2274,9,,[],22,Yes,,2,1,Male,English,Chrome,Windows,1080,1920,2.9890166666666667,
47,condition1,black and white,picture_bw_rectangular,picture,[0.01],2579,10,,[],22,Yes,,2,1,Male,English,Chrome,Windows,1080,1920,2.9890166666666667,
47,condition1,bearded,man_old_bearded,man,[0.01],1954,11,,[],22,Yes,,2,1,Male,English,Chrome,Windows,1080,1920,2.9890166666666667,
47,condition1,sad,woman_old_sad,woman,[0.54],3740,12,,[],22,Yes,,2,1,Male,English,Chrome,Windows,1080,1920,2.9890166666666667,
47,condition1,matte,nails_black_matte,nails,[0.72],4651,13,,[],22,Yes,,2,1,Male,English,Chrome,Windows,1080,1920,2.9890166666666667,
47,condition1,clean-shaven,man_old_cleanshaven,man,[0.01],2037,14,,[],22,Yes,,2,1,Male,English,Chrome,Windows,1080,1920,2.9890166666666667,
47,condition1,closed,box_closed_cardboard,box,[0.27],28116,15,,[],22,Yes,,2,1,Male,English,Chrome,Windows,1080,1920,2.9890166666666667,
47,condition1,colored,picture_colored_rectangular,picture,[0.08],1409,16,,[],22,Yes,,2,1,Male,English,Chrome,Windows,1080,1920,2.9890166666666667,
47,condition1,mustache-touting,man2_mustached_glassed,man,[0.01],10845,17,,[],22,Yes,,2,1,Male,English,Chrome,Windows,1080,1920,2.9890166666666667,
47,condition1,wet,shorts_wet_green,shorts,[0.62],5292,18,,[],22,Yes,,2,1,Male,English,Chrome,Windows,1080,1920,2.9890166666666667,
47,condition1,glossy,nails_black_glossy,nails,[0.42],917,19,,[],22,Yes,,2,1,Male,English,Chrome,Windows,1080,1920,2.9890166666666667,
47,condition1,high,table_metal_high,table,[0.7],1285,20,,[],22,Yes,,2,1,Male,English,Chrome,Windows,1080,1920,2.9890166666666667,
47,condition1,big,bottle_glass_big,bottle,[0.23],1430,21,,[],22,Yes,,2,1,Male,English,Chrome,Windows,1080,1920,2.9890166666666667,
47,condition1,plastic,bottle_plastic_big,bottle,[0.4],751,22,,[],22,Yes,,2,1,Male,English,Chrome,Windows,1080,1920,2.9890166666666667,
47,condition1,dry,shorts_dry_green,shorts,[0.67],579,23,,[],22,Yes,,2,1,Male,English,Chrome,Windows,1080,1920,2.9890166666666667,
47,condition1,old,man_old_bearded,man,[0.31],983,24,,[],22,Yes,,2,1,Male,English,Chrome,Windows,1080,1920,2.9890166666666667,
47,condition1,glass,bottle_glass_big,bottle,[0.7],543,25,,[],22,Yes,,2,1,Male,English,Chrome,Windows,1080,1920,2.9890166666666667,
47,condition1,square,picture_bw_square,picture,[0.15],1314,26,,[],22,Yes,,2,1,Male,English,Chrome,Windows,1080,1920,2.9890166666666667,
47,condition1,red,frog_spotted_red,frog,[0.53],1358,27,,[],22,Yes,,2,1,Male,English,Chrome,Windows,1080,1920,2.9890166666666667,
47,condition1,happy,woman_old_happy,woman,[0.7],541,28,,[],22,Yes,,2,1,Male,English,Chrome,Windows,1080,1920,2.9890166666666667,
47,condition1,triangular,earring_big_triangular,earring,[0.15],1415,29,,[],22,Yes,,2,1,Male,English,Chrome,Windows,1080,1920,2.9890166666666667,
47,condition1,young,man_young_bearded,man,[0.72],822,30,,[],22,Yes,,2,1,Male,English,Chrome,Windows,1080,1920,2.9890166666666667,
47,condition1,straight,hair_straight_blond,hair,[0.65],571,31,,[],22,Yes,,2,1,Male,English,Chrome,Windows,1080,1920,2.9890166666666667,
47,condition1,metal,spoon_metal_clean,spoon,[0.66],1656,32,,[],22,Yes,,2,1,Male,English,Chrome,Windows,1080,1920,2.9890166666666667,
47,condition1,low,table_metal_low,table,[0.74],2868,33,,[],22,Yes,,2,1,Male,English,Chrome,Windows,1080,1920,2.9890166666666667,
47,condition1,cardboard,box_closed_cardboard,box,[0.15],1459,34,,[],22,Yes,,2,1,Male,English,Chrome,Windows,1080,1920,2.9890166666666667,
47,condition1,striped,frog_striped_green,frog,[0.79],10917,35,,[],22,Yes,,2,1,Male,English,Chrome,Windows,1080,1920,2.9890166666666667,
47,condition1,wooden,spoon_wooden_clean,spoon,[0.16],5535,36,,[],22,Yes,,2,1,Male,English,Chrome,Windows,1080,1920,2.9890166666666667,
47,condition1,glasses-wearing,man2_bearded_glassed,man,[0],2787,37,,[],22,Yes,,2,1,Male,English,Chrome,Windows,1080,1920,2.9890166666666667,
47,condition1,rectangular,picture_bw_rectangular,picture,[0.32],1772,38,,[],22,Yes,,2,1,Male,English,Chrome,Windows,1080,1920,2.9890166666666667,
47,condition1,brown,hair_curly_brown,hair,[0.07],1711,39,,[],22,Yes,,2,1,Male,English,Chrome,Windows,1080,1920,2.9890166666666667,
47,condition1,small,bottle_glass_small,bottle,[0.69],1990,40,,[],22,Yes,,2,1,Male,English,Chrome,Windows,1080,1920,2.9890166666666667,
47,condition1,open,box_open_cardboard,box,[0.08],2007,41,,[],22,Yes,,2,1,Male,English,Chrome,Windows,1080,1920,2.9890166666666667,
47,condition1,short,pencil_short_black,pencil,[0.48],1870,42,,[],22,Yes,,2,1,Male,English,Chrome,Windows,1080,1920,2.9890166666666667,
47,condition1,blue,pencil_long_blue,pencil,[0.1],1323,43,,[],22,Yes,,2,1,Male,English,Chrome,Windows,1080,1920,2.9890166666666667,
47,condition1,clean,spoon_metal_clean,spoon,[0.11],1362,44,,[],22,Yes,,2,1,Male,English,Chrome,Windows,1080,1920,2.9890166666666667,
47,condition1,spotted,frog_spotted_green,frog,[0.16],1807,45,,[],22,Yes,,2,1,Male,English,Chrome,Windows,1080,1920,2.9890166666666667,
47,condition1,black,nails_black_glossy,nails,[0.23],1463,46,,[],22,Yes,,2,1,Male,English,Chrome,Windows,1080,1920,2.9890166666666667,
47,condition1,hat-wearing,man2_bearded_hatted,man,[0.05],1231,47,,[],22,Yes,,2,1,Male,English,Chrome,Windows,1080,1920,2.9890166666666667,
47,condition1,blond,hair_curly_blonde,hair,[0.42],3096,48,,[],22,Yes,,2,1,Male,English,Chrome,Windows,1080,1920,2.9890166666666667,
45,condition1,,,Sarah,Sarah,0,1,bot_check,[],26,Yes,,2,1,Male,English,Firefox,Windows,900,1600,4.739983333333333,
45,condition1,dirty,spoon_metal_dirty,spoon,[0.51],40620,3,,[],26,Yes,,2,1,Male,English,Firefox,Windows,900,1600,4.739983333333333,
45,condition1,short,pencil_short_black,pencil,[0.65],12470,4,,[],26,Yes,,2,1,Male,English,Firefox,Windows,900,1600,4.739983333333333,
45,condition1,glass,bottle_glass_big,bottle,[0],4711,5,,[],26,Yes,,2,1,Male,English,Firefox,Windows,900,1600,4.739983333333333,
45,condition1,clean-shaven,man_old_cleanshaven,man,[0.74],7551,6,,[],26,Yes,,2,1,Male,English,Firefox,Windows,900,1600,4.739983333333333,
45,condition1,young,man_young_bearded,man,[1],3272,7,,[],26,Yes,,2,1,Male,English,Firefox,Windows,900,1600,4.739983333333333,
45,condition1,high,table_metal_high,table,[0.75],8743,8,,[],26,Yes,,2,1,Male,English,Firefox,Windows,900,1600,4.739983333333333,
45,condition1,square,picture_bw_square,picture,[0],6399,9,,[],26,Yes,,2,1,Male,English,Firefox,Windows,900,1600,4.739983333333333,
45,condition1,long,pencil_long_black,pencil,[0.84],5536,10,,[],26,Yes,,2,1,Male,English,Firefox,Windows,900,1600,4.739983333333333,
45,condition1,mustache-touting,man2_mustached_glassed,man,[0.52],4544,11,,[],26,Yes,,2,1,Male,English,Firefox,Windows,900,1600,4.739983333333333,
45,condition1,metal,spoon_metal_clean,spoon,[0.79],10543,12,,[],26,Yes,,2,1,Male,English,Firefox,Windows,900,1600,4.739983333333333,
45,condition1,green,frog_spotted_green,frog,[0.19],6592,13,,[],26,Yes,,2,1,Male,English,Firefox,Windows,900,1600,4.739983333333333,
45,condition1,blue,pencil_long_blue,pencil,[0.14],2822,14,,[],26,Yes,,2,1,Male,English,Firefox,Windows,900,1600,4.739983333333333,
45,condition1,colored,picture_colored_rectangular,picture,[0.13],3632,15,,[],26,Yes,,2,1,Male,English,Firefox,Windows,900,1600,4.739983333333333,
45,condition1,happy,woman_old_happy,woman,[0.63],7256,16,,[],26,Yes,,2,1,Male,English,Firefox,Windows,900,1600,4.739983333333333,
45,condition1,glossy,nails_black_glossy,nails,[0.81],3479,17,,[],26,Yes,,2,1,Male,English,Firefox,Windows,900,1600,4.739983333333333,
45,condition1,skinny,woman2_happy_skinny,woman,[0.36],6200,18,,[],26,Yes,,2,1,Male,English,Firefox,Windows,900,1600,4.739983333333333,
45,condition1,old,man_old_bearded,man,[0.41],4695,19,,[],26,Yes,,2,1,Male,English,Firefox,Windows,900,1600,4.739983333333333,
45,condition1,clean,spoon_metal_clean,spoon,[0.71],4360,20,,[],26,Yes,,2,1,Male,English,Firefox,Windows,900,1600,4.739983333333333,
45,condition1,black,nails_black_glossy,nails,[0.49],4312,21,,[],26,Yes,,2,1,Male,English,Firefox,Windows,900,1600,4.739983333333333,
45,condition1,low,table_metal_low,table,[0.75],4617,22,,[],26,Yes,,2,1,Male,English,Firefox,Windows,900,1600,4.739983333333333,
45,condition1,open,box_open_cardboard,box,[0.64],3799,23,,[],26,Yes,,2,1,Male,English,Firefox,Windows,900,1600,4.739983333333333,
45,condition1,curly,hair_curly_blonde,hair,[0.82],3271,24,,[],26,Yes,,2,1,Male,English,Firefox,Windows,900,1600,4.739983333333333,
45,condition1,fat,woman2_happy_fat,woman,[0.35],2567,25,,[],26,Yes,,2,1,Male,English,Firefox,Windows,900,1600,4.739983333333333,
45,condition1,rectangular,picture_bw_rectangular,picture,[0],4698,26,,[],26,Yes,,2,1,Male,English,Firefox,Windows,900,1600,4.739983333333333,
45,condition1,plastic,bottle_plastic_big,bottle,[0],2645,27,,[],26,Yes,,2,1,Male,English,Firefox,Windows,900,1600,4.739983333333333,
45,condition1,cardboard,box_closed_cardboard,box,[0],2016,28,,[],26,Yes,,2,1,Male,English,Firefox,Windows,900,1600,4.739983333333333,
45,condition1,dry,shorts_dry_green,shorts,[0.14],4912,29,,[],26,Yes,,2,1,Male,English,Firefox,Windows,900,1600,4.739983333333333,
45,condition1,wooden,spoon_wooden_clean,spoon,[0.5],3879,30,,[],26,Yes,,2,1,Male,English,Firefox,Windows,900,1600,4.739983333333333,
45,condition1,straight,hair_straight_blond,hair,[1],7319,31,,[],26,Yes,,2,1,Male,English,Firefox,Windows,900,1600,4.739983333333333,
45,condition1,triangular,earring_big_triangular,earring,[0],4087,32,,[],26,Yes,,2,1,Male,English,Firefox,Windows,900,1600,4.739983333333333,
45,condition1,small,bottle_glass_small,bottle,[0.26],3496,33,,[],26,Yes,,2,1,Male,English,Firefox,Windows,900,1600,4.739983333333333,
45,condition1,wet,shorts_wet_green,shorts,[0.22],3951,34,,[],26,Yes,,2,1,Male,English,Firefox,Windows,900,1600,4.739983333333333,
45,condition1,blond,hair_curly_blonde,hair,[0.17],3640,35,,[],26,Yes,,2,1,Male,English,Firefox,Windows,900,1600,4.739983333333333,
45,condition1,bearded,man_old_bearded,man,[0.24],2088,36,,[],26,Yes,,2,1,Male,English,Firefox,Windows,900,1600,4.739983333333333,
45,condition1,round,earring_big_round,earring,[0.13],2999,37,,[],26,Yes,,2,1,Male,English,Firefox,Windows,900,1600,4.739983333333333,
45,condition1,sad,woman_old_sad,woman,[0.54],5367,38,,[],26,Yes,,2,1,Male,English,Firefox,Windows,900,1600,4.739983333333333,
45,condition1,spotted,frog_spotted_green,frog,[0.14],3289,39,,[],26,Yes,,2,1,Male,English,Firefox,Windows,900,1600,4.739983333333333,
45,condition1,striped,frog_striped_green,frog,[0],2016,40,,[],26,Yes,,2,1,Male,English,Firefox,Windows,900,1600,4.739983333333333,
45,condition1,big,bottle_glass_big,bottle,[0.19],4590,41,,[],26,Yes,,2,1,Male,English,Firefox,Windows,900,1600,4.739983333333333,
45,condition1,black and white,picture_bw_rectangular,picture,[0.62],7935,42,,[],26,Yes,,2,1,Male,English,Firefox,Windows,900,1600,4.739983333333333,
45,condition1,hat-wearing,man2_bearded_hatted,man,[0.77],3719,43,,[],26,Yes,,2,1,Male,English,Firefox,Windows,900,1600,4.739983333333333,
45,condition1,matte,nails_black_matte,nails,[0.54],2743,44,,[],26,Yes,,2,1,Male,English,Firefox,Windows,900,1600,4.739983333333333,
45,condition1,closed,box_closed_cardboard,box,[0.1],3920,45,,[],26,Yes,,2,1,Male,English,Firefox,Windows,900,1600,4.739983333333333,
45,condition1,glasses-wearing,man2_bearded_glassed,man,[0],4585,46,,[],26,Yes,,2,1,Male,English,Firefox,Windows,900,1600,4.739983333333333,
45,condition1,brown,hair_curly_brown,hair,[0],7070,47,,[],26,Yes,,2,1,Male,English,Firefox,Windows,900,1600,4.739983333333333,
45,condition1,red,frog_spotted_red,frog,[0],2473,48,,[],26,Yes,,2,1,Male,English,Firefox,Windows,900,1600,4.739983333333333,
42,condition1,,,Margaret,Margaret,0,1,bot_check,[],20,Yes,,2,2,Female,English,Chrome,Windows,864,1536,2.5274,
42,condition1,round,earring_big_round,earring,[0.13],8064,3,,[],20,Yes,,2,2,Female,English,Chrome,Windows,864,1536,2.5274,
42,condition1,glass,bottle_glass_big,bottle,[0],3720,4,,[],20,Yes,,2,2,Female,English,Chrome,Windows,864,1536,2.5274,
42,condition1,closed,box_closed_cardboard,box,[0.51],3694,5,,[],20,Yes,,2,2,Female,English,Chrome,Windows,864,1536,2.5274,
42,condition1,old,man_old_bearded,man,[0.91],3561,6,,[],20,Yes,,2,2,Female,English,Chrome,Windows,864,1536,2.5274,
42,condition1,black and white,picture_bw_rectangular,picture,[0.24],4705,7,,[],20,Yes,,2,2,Female,English,Chrome,Windows,864,1536,2.5274,
42,condition1,glasses-wearing,man2_bearded_glassed,man,[0.15],3036,8,,[],20,Yes,,2,2,Female,English,Chrome,Windows,864,1536,2.5274,
42,condition1,triangular,earring_big_triangular,earring,[0.39],3909,9,,[],20,Yes,,2,2,Female,English,Chrome,Windows,864,1536,2.5274,
42,condition1,open,box_open_cardboard,box,[0.51],2421,10,,[],20,Yes,,2,2,Female,English,Chrome,Windows,864,1536,2.5274,
42,condition1,wooden,spoon_wooden_clean,spoon,[0.13],2029,11,,[],20,Yes,,2,2,Female,English,Chrome,Windows,864,1536,2.5274,
42,condition1,blue,pencil_long_blue,pencil,[0.11],3908,12,,[],20,Yes,,2,2,Female,English,Chrome,Windows,864,1536,2.5274,
42,condition1,low,table_metal_low,table,[0.91],3070,13,,[],20,Yes,,2,2,Female,English,Chrome,Windows,864,1536,2.5274,
42,condition1,red,frog_spotted_red,frog,[0.18],4000,14,,[],20,Yes,,2,2,Female,English,Chrome,Windows,864,1536,2.5274,
42,condition1,straight,hair_straight_blond,hair,[0.49],2982,15,,[],20,Yes,,2,2,Female,English,Chrome,Windows,864,1536,2.5274,
42,condition1,short,pencil_short_black,pencil,[0.75],2234,16,,[],20,Yes,,2,2,Female,English,Chrome,Windows,864,1536,2.5274,
42,condition1,wet,shorts_wet_green,shorts,[0.51],2818,17,,[],20,Yes,,2,2,Female,English,Chrome,Windows,864,1536,2.5274,
42,condition1,curly,hair_curly_blonde,hair,[0.49],2110,18,,[],20,Yes,,2,2,Female,English,Chrome,Windows,864,1536,2.5274,
42,condition1,sad,woman_old_sad,woman,[0.88],2698,19,,[],20,Yes,,2,2,Female,English,Chrome,Windows,864,1536,2.5274,
42,condition1,glossy,nails_black_glossy,nails,[0.56],2514,20,,[],20,Yes,,2,2,Female,English,Chrome,Windows,864,1536,2.5274,
42,condition1,dry,shorts_dry_green,shorts,[0.64],2338,21,,[],20,Yes,,2,2,Female,English,Chrome,Windows,864,1536,2.5274,
42,condition1,high,table_metal_high,table,[0.89],2250,22,,[],20,Yes,,2,2,Female,English,Chrome,Windows,864,1536,2.5274,
42,condition1,skinny,woman2_happy_skinny,woman,[0.96],2208,23,,[],20,Yes,,2,2,Female,English,Chrome,Windows,864,1536,2.5274,
42,condition1,hat-wearing,man2_bearded_hatted,man,[0.2],2432,24,,[],20,Yes,,2,2,Female,English,Chrome,Windows,864,1536,2.5274,
42,condition1,big,bottle_glass_big,bottle,[0.83],3260,25,,[],20,Yes,,2,2,Female,English,Chrome,Windows,864,1536,2.5274,
42,condition1,brown,hair_curly_brown,hair,[0.17],2170,26,,[],20,Yes,,2,2,Female,English,Chrome,Windows,864,1536,2.5274,
42,condition1,striped,frog_striped_green,frog,[0.08],2616,27,,[],20,Yes,,2,2,Female,English,Chrome,Windows,864,1536,2.5274,
42,condition1,rectangular,picture_bw_rectangular,picture,[0.27],1797,28,,[],20,Yes,,2,2,Female,English,Chrome,Windows,864,1536,2.5274,
42,condition1,metal,spoon_metal_clean,spoon,[0.01],2523,29,,[],20,Yes,,2,2,Female,English,Chrome,Windows,864,1536,2.5274,
42,condition1,clean-shaven,man_old_cleanshaven,man,[0.64],2184,30,,[],20,Yes,,2,2,Female,English,Chrome,Windows,864,1536,2.5274,
42,condition1,plastic,bottle_plastic_big,bottle,[0.04],3334,31,,[],20,Yes,,2,2,Female,English,Chrome,Windows,864,1536,2.5274,
42,condition1,dirty,spoon_metal_dirty,spoon,[0.81],2658,32,,[],20,Yes,,2,2,Female,English,Chrome,Windows,864,1536,2.5274,
42,condition1,cardboard,box_closed_cardboard,box,[0.02],2058,33,,[],20,Yes,,2,2,Female,English,Chrome,Windows,864,1536,2.5274,
42,condition1,clean,spoon_metal_clean,spoon,[0.7],1736,34,,[],20,Yes,,2,2,Female,English,Chrome,Windows,864,1536,2.5274,
42,condition1,young,man_young_bearded,man,[0.93],1744,35,,[],20,Yes,,2,2,Female,English,Chrome,Windows,864,1536,2.5274,
42,condition1,blond,hair_curly_blonde,hair,[0.33],4310,36,,[],20,Yes,,2,2,Female,English,Chrome,Windows,864,1536,2.5274,
42,condition1,happy,woman_old_happy,woman,[0.88],3104,37,,[],20,Yes,,2,2,Female,English,Chrome,Windows,864,1536,2.5274,
42,condition1,mustache-touting,man2_mustached_glassed,man,[0.68],3682,38,,[],20,Yes,,2,2,Female,English,Chrome,Windows,864,1536,2.5274,
42,condition1,matte,nails_black_matte,nails,[0.41],4610,39,,[],20,Yes,,2,2,Female,English,Chrome,Windows,864,1536,2.5274,
42,condition1,long,pencil_long_black,pencil,[0.87],2542,40,,[],20,Yes,,2,2,Female,English,Chrome,Windows,864,1536,2.5274,
42,condition1,small,bottle_glass_small,bottle,[0.91],1958,41,,[],20,Yes,,2,2,Female,English,Chrome,Windows,864,1536,2.5274,
42,condition1,fat,woman2_happy_fat,woman,[1],1907,42,,[],20,Yes,,2,2,Female,English,Chrome,Windows,864,1536,2.5274,
42,condition1,bearded,man_old_bearded,man,[0.28],1855,43,,[],20,Yes,,2,2,Female,English,Chrome,Windows,864,1536,2.5274,
42,condition1,black,nails_black_glossy,nails,[0.12],3000,44,,[],20,Yes,,2,2,Female,English,Chrome,Windows,864,1536,2.5274,
42,condition1,colored,picture_colored_rectangular,picture,[0.21],2140,45,,[],20,Yes,,2,2,Female,English,Chrome,Windows,864,1536,2.5274,
42,condition1,spotted,frog_spotted_green,frog,[0.13],2274,46,,[],20,Yes,,2,2,Female,English,Chrome,Windows,864,1536,2.5274,
42,condition1,square,picture_bw_square,picture,[0.14],3284,47,,[],20,Yes,,2,2,Female,English,Chrome,Windows,864,1536,2.5274,
42,condition1,green,frog_spotted_green,frog,[0.12],2430,48,,[],20,Yes,,2,2,Female,English,Chrome,Windows,864,1536,2.5274,
37,condition1,,,Margaret,Margaret,0,1,bot_check,[],19,Yes,,2,2,Male,English,Chrome,Windows,1080,1920,1.9782833333333336,
37,condition1,curly,hair_curly_blonde,hair,[0.09],21300,3,,[],19,Yes,,2,2,Male,English,Chrome,Windows,1080,1920,1.9782833333333336,
37,condition1,dirty,spoon_metal_dirty,spoon,[0.59],3502,4,,[],19,Yes,,2,2,Male,English,Chrome,Windows,1080,1920,1.9782833333333336,
37,condition1,closed,box_closed_cardboard,box,[0],2411,5,,[],19,Yes,,2,2,Male,English,Chrome,Windows,1080,1920,1.9782833333333336,
37,condition1,striped,frog_striped_green,frog,[0.18],1998,6,,[],19,Yes,,2,2,Male,English,Chrome,Windows,1080,1920,1.9782833333333336,
37,condition1,small,bottle_glass_small,bottle,[0.61],2024,7,,[],19,Yes,,2,2,Male,English,Chrome,Windows,1080,1920,1.9782833333333336,
37,condition1,long,pencil_long_black,pencil,[0.58],3148,8,,[],19,Yes,,2,2,Male,English,Chrome,Windows,1080,1920,1.9782833333333336,
37,condition1,black and white,picture_bw_rectangular,picture,[0],1542,9,,[],19,Yes,,2,2,Male,English,Chrome,Windows,1080,1920,1.9782833333333336,
37,condition1,triangular,earring_big_triangular,earring,[0],1379,10,,[],19,Yes,,2,2,Male,English,Chrome,Windows,1080,1920,1.9782833333333336,
37,condition1,young,man_young_bearded,man,[0.59],2435,11,,[],19,Yes,,2,2,Male,English,Chrome,Windows,1080,1920,1.9782833333333336,
37,condition1,metal,spoon_metal_clean,spoon,[0],1700,12,,[],19,Yes,,2,2,Male,English,Chrome,Windows,1080,1920,1.9782833333333336,
37,condition1,round,earring_big_round,earring,[0.45],1950,13,,[],19,Yes,,2,2,Male,English,Chrome,Windows,1080,1920,1.9782833333333336,
37,condition1,happy,woman_old_happy,woman,[1],2191,14,,[],19,Yes,,2,2,Male,English,Chrome,Windows,1080,1920,1.9782833333333336,
37,condition1,brown,hair_curly_brown,hair,[0],1610,15,,[],19,Yes,,2,2,Male,English,Chrome,Windows,1080,1920,1.9782833333333336,
37,condition1,plastic,bottle_plastic_big,bottle,[0.03],1583,16,,[],19,Yes,,2,2,Male,English,Chrome,Windows,1080,1920,1.9782833333333336,
37,condition1,mustache-touting,man2_mustached_glassed,man,[0.47],2856,17,,[],19,Yes,,2,2,Male,English,Chrome,Windows,1080,1920,1.9782833333333336,
37,condition1,big,bottle_glass_big,bottle,[0.71],1671,18,,[],19,Yes,,2,2,Male,English,Chrome,Windows,1080,1920,1.9782833333333336,
37,condition1,wet,shorts_wet_green,shorts,[0.19],1596,19,,[],19,Yes,,2,2,Male,English,Chrome,Windows,1080,1920,1.9782833333333336,
37,condition1,bearded,man_old_bearded,man,[0.32],1624,20,,[],19,Yes,,2,2,Male,English,Chrome,Windows,1080,1920,1.9782833333333336,
37,condition1,cardboard,box_closed_cardboard,box,[0.09],3139,21,,[],19,Yes,,2,2,Male,English,Chrome,Windows,1080,1920,1.9782833333333336,
37,condition1,open,box_open_cardboard,box,[0.09],1788,22,,[],19,Yes,,2,2,Male,English,Chrome,Windows,1080,1920,1.9782833333333336,
37,condition1,glossy,nails_black_glossy,nails,[0.61],2413,23,,[],19,Yes,,2,2,Male,English,Chrome,Windows,1080,1920,1.9782833333333336,
37,condition1,glass,bottle_glass_big,bottle,[0.01],1456,24,,[],19,Yes,,2,2,Male,English,Chrome,Windows,1080,1920,1.9782833333333336,
37,condition1,high,table_metal_high,table,[0.18],1839,25,,[],19,Yes,,2,2,Male,English,Chrome,Windows,1080,1920,1.9782833333333336,
37,condition1,fat,woman2_happy_fat,woman,[0.78],1780,26,,[],19,Yes,,2,2,Male,English,Chrome,Windows,1080,1920,1.9782833333333336,
37,condition1,red,frog_spotted_red,frog,[0],1490,27,,[],19,Yes,,2,2,Male,English,Chrome,Windows,1080,1920,1.9782833333333336,
37,condition1,blue,pencil_long_blue,pencil,[0],1379,28,,[],19,Yes,,2,2,Male,English,Chrome,Windows,1080,1920,1.9782833333333336,
37,condition1,clean-shaven,man_old_cleanshaven,man,[0.33],2424,29,,[],19,Yes,,2,2,Male,English,Chrome,Windows,1080,1920,1.9782833333333336,
37,condition1,matte,nails_black_matte,nails,[0.05],1695,30,,[],19,Yes,,2,2,Male,English,Chrome,Windows,1080,1920,1.9782833333333336,
37,condition1,square,picture_bw_square,picture,[0.13],1854,31,,[],19,Yes,,2,2,Male,English,Chrome,Windows,1080,1920,1.9782833333333336,
37,condition1,wooden,spoon_wooden_clean,spoon,[0.15],1392,32,,[],19,Yes,,2,2,Male,English,Chrome,Windows,1080,1920,1.9782833333333336,
37,condition1,spotted,frog_spotted_green,frog,[0.39],2356,33,,[],19,Yes,,2,2,Male,English,Chrome,Windows,1080,1920,1.9782833333333336,
37,condition1,black,nails_black_glossy,nails,[0.06],1288,34,,[],19,Yes,,2,2,Male,English,Chrome,Windows,1080,1920,1.9782833333333336,
37,condition1,short,pencil_short_black,pencil,[0.63],1434,35,,[],19,Yes,,2,2,Male,English,Chrome,Windows,1080,1920,1.9782833333333336,
37,condition1,blond,hair_curly_blonde,hair,[0.21],1983,36,,[],19,Yes,,2,2,Male,English,Chrome,Windows,1080,1920,1.9782833333333336,
37,condition1,sad,woman_old_sad,woman,[0.86],1448,37,,[],19,Yes,,2,2,Male,English,Chrome,Windows,1080,1920,1.9782833333333336,
37,condition1,dry,shorts_dry_green,shorts,[0.18],1441,38,,[],19,Yes,,2,2,Male,English,Chrome,Windows,1080,1920,1.9782833333333336,
37,condition1,old,man_old_bearded,man,[0.79],1348,39,,[],19,Yes,,2,2,Male,English,Chrome,Windows,1080,1920,1.9782833333333336,
37,condition1,skinny,woman2_happy_skinny,woman,[0.81],1135,40,,[],19,Yes,,2,2,Male,English,Chrome,Windows,1080,1920,1.9782833333333336,
37,condition1,green,frog_spotted_green,frog,[0.07],2586,41,,[],19,Yes,,2,2,Male,English,Chrome,Windows,1080,1920,1.9782833333333336,
37,condition1,low,table_metal_low,table,[0.17],1880,42,,[],19,Yes,,2,2,Male,English,Chrome,Windows,1080,1920,1.9782833333333336,
37,condition1,glasses-wearing,man2_bearded_glassed,man,[0.03],1610,43,,[],19,Yes,,2,2,Male,English,Chrome,Windows,1080,1920,1.9782833333333336,
37,condition1,colored,picture_colored_rectangular,picture,[0.08],2667,44,,[],19,Yes,,2,2,Male,English,Chrome,Windows,1080,1920,1.9782833333333336,
37,condition1,hat-wearing,man2_bearded_hatted,man,[0.14],1919,45,,[],19,Yes,,2,2,Male,English,Chrome,Windows,1080,1920,1.9782833333333336,
37,condition1,rectangular,picture_bw_rectangular,picture,[0.07],1598,46,,[],19,Yes,,2,2,Male,English,Chrome,Windows,1080,1920,1.9782833333333336,
37,condition1,straight,hair_straight_blond,hair,[0.68],2424,47,,[],19,Yes,,2,2,Male,English,Chrome,Windows,1080,1920,1.9782833333333336,
37,condition1,clean,spoon_metal_clean,spoon,[0.74],1374,48,,[],19,Yes,,2,2,Male,English,Chrome,Windows,1080,1920,1.9782833333333336,
17,condition1,,,Jessica,Jessica,0,1,bot_check,[],39,Yes,would be very interested to know what is being studied here and what the results are.,2,2,Male,English,Firefox,Windows,768,1366,4.33185,
17,condition1,straight,hair_straight_blond,hair,[0.06],8616,3,,[],39,Yes,would be very interested to know what is being studied here and what the results are.,2,2,Male,English,Firefox,Windows,768,1366,4.33185,
17,condition1,striped,frog_striped_green,frog,[0.04],4413,4,,[],39,Yes,would be very interested to know what is being studied here and what the results are.,2,2,Male,English,Firefox,Windows,768,1366,4.33185,
17,condition1,young,man_young_bearded,man,[0.55],5760,5,,[],39,Yes,would be very interested to know what is being studied here and what the results are.,2,2,Male,English,Firefox,Windows,768,1366,4.33185,
17,condition1,open,box_open_cardboard,box,[0.06],6143,6,,[],39,Yes,would be very interested to know what is being studied here and what the results are.,2,2,Male,English,Firefox,Windows,768,1366,4.33185,
17,condition1,brown,hair_curly_brown,hair,[0.05],4382,7,,[],39,Yes,would be very interested to know what is being studied here and what the results are.,2,2,Male,English,Firefox,Windows,768,1366,4.33185,
17,condition1,curly,hair_curly_blonde,hair,[0.33],4141,8,,[],39,Yes,would be very interested to know what is being studied here and what the results are.,2,2,Male,English,Firefox,Windows,768,1366,4.33185,
17,condition1,glass,bottle_glass_big,bottle,[0],3634,9,,[],39,Yes,would be very interested to know what is being studied here and what the results are.,2,2,Male,English,Firefox,Windows,768,1366,4.33185,
17,condition1,hat-wearing,man2_bearded_hatted,man,[0],3029,10,,[],39,Yes,would be very interested to know what is being studied here and what the results are.,2,2,Male,English,Firefox,Windows,768,1366,4.33185,
17,condition1,fat,woman2_happy_fat,woman,[0.68],6625,11,,[],39,Yes,would be very interested to know what is being studied here and what the results are.,2,2,Male,English,Firefox,Windows,768,1366,4.33185,
17,condition1,black and white,picture_bw_rectangular,picture,[0.07],6313,12,,[],39,Yes,would be very interested to know what is being studied here and what the results are.,2,2,Male,English,Firefox,Windows,768,1366,4.33185,
17,condition1,rectangular,picture_bw_rectangular,picture,[0],2636,13,,[],39,Yes,would be very interested to know what is being studied here and what the results are.,2,2,Male,English,Firefox,Windows,768,1366,4.33185,
17,condition1,bearded,man_old_bearded,man,[0],2779,14,,[],39,Yes,would be very interested to know what is being studied here and what the results are.,2,2,Male,English,Firefox,Windows,768,1366,4.33185,
17,condition1,plastic,bottle_plastic_big,bottle,[0],3460,15,,[],39,Yes,would be very interested to know what is being studied here and what the results are.,2,2,Male,English,Firefox,Windows,768,1366,4.33185,
17,condition1,colored,picture_colored_rectangular,picture,[0.48],6560,16,,[],39,Yes,would be very interested to know what is being studied here and what the results are.,2,2,Male,English,Firefox,Windows,768,1366,4.33185,
17,condition1,low,table_metal_low,table,[0.47],8403,17,,[],39,Yes,would be very interested to know what is being studied here and what the results are.,2,2,Male,English,Firefox,Windows,768,1366,4.33185,
17,condition1,clean,spoon_metal_clean,spoon,[0.3],3868,18,,[],39,Yes,would be very interested to know what is being studied here and what the results are.,2,2,Male,English,Firefox,Windows,768,1366,4.33185,
17,condition1,glasses-wearing,man2_bearded_glassed,man,[0.01],3219,19,,[],39,Yes,would be very interested to know what is being studied here and what the results are.,2,2,Male,English,Firefox,Windows,768,1366,4.33185,
17,condition1,blond,hair_curly_blonde,hair,[0.09],3830,20,,[],39,Yes,would be very interested to know what is being studied here and what the results are.,2,2,Male,English,Firefox,Windows,768,1366,4.33185,
17,condition1,small,bottle_glass_small,bottle,[0.51],5328,21,,[],39,Yes,would be very interested to know what is being studied here and what the results are.,2,2,Male,English,Firefox,Windows,768,1366,4.33185,
17,condition1,red,frog_spotted_red,frog,[0.04],3772,22,,[],39,Yes,would be very interested to know what is being studied here and what the results are.,2,2,Male,English,Firefox,Windows,768,1366,4.33185,
17,condition1,big,bottle_glass_big,bottle,[0.56],10709,23,,[],39,Yes,would be very interested to know what is being studied here and what the results are.,2,2,Male,English,Firefox,Windows,768,1366,4.33185,
17,condition1,square,picture_bw_square,picture,[0],3886,24,,[],39,Yes,would be very interested to know what is being studied here and what the results are.,2,2,Male,English,Firefox,Windows,768,1366,4.33185,
17,condition1,wooden,spoon_wooden_clean,spoon,[0],3940,25,,[],39,Yes,would be very interested to know what is being studied here and what the results are.,2,2,Male,English,Firefox,Windows,768,1366,4.33185,
17,condition1,spotted,frog_spotted_green,frog,[0.02],2684,26,,[],39,Yes,would be very interested to know what is being studied here and what the results are.,2,2,Male,English,Firefox,Windows,768,1366,4.33185,
17,condition1,mustache-touting,man2_mustached_glassed,man,[0.05],5279,27,,[],39,Yes,would be very interested to know what is being studied here and what the results are.,2,2,Male,English,Firefox,Windows,768,1366,4.33185,
17,condition1,green,frog_spotted_green,frog,[0.05],2530,28,,[],39,Yes,would be very interested to know what is being studied here and what the results are.,2,2,Male,English,Firefox,Windows,768,1366,4.33185,
17,condition1,closed,box_closed_cardboard,box,[0.3],3798,29,,[],39,Yes,would be very interested to know what is being studied here and what the results are.,2,2,Male,English,Firefox,Windows,768,1366,4.33185,
17,condition1,dry,shorts_dry_green,shorts,[0.14],5053,30,,[],39,Yes,would be very interested to know what is being studied here and what the results are.,2,2,Male,English,Firefox,Windows,768,1366,4.33185,
17,condition1,triangular,earring_big_triangular,earring,[0.01],3749,31,,[],39,Yes,would be very interested to know what is being studied here and what the results are.,2,2,Male,English,Firefox,Windows,768,1366,4.33185,
17,condition1,old,man_old_bearded,man,[0.65],8042,32,,[],39,Yes,would be very interested to know what is being studied here and what the results are.,2,2,Male,English,Firefox,Windows,768,1366,4.33185,
17,condition1,blue,pencil_long_blue,pencil,[0.05],4030,33,,[],39,Yes,would be very interested to know what is being studied here and what the results are.,2,2,Male,English,Firefox,Windows,768,1366,4.33185,
17,condition1,wet,shorts_wet_green,shorts,[0.08],2923,34,,[],39,Yes,would be very interested to know what is being studied here and what the results are.,2,2,Male,English,Firefox,Windows,768,1366,4.33185,
17,condition1,sad,woman_old_sad,woman,[0.51],6440,35,,[],39,Yes,would be very interested to know what is being studied here and what the results are.,2,2,Male,English,Firefox,Windows,768,1366,4.33185,
17,condition1,round,earring_big_round,earring,[0.05],2852,36,,[],39,Yes,would be very interested to know what is being studied here and what the results are.,2,2,Male,English,Firefox,Windows,768,1366,4.33185,
17,condition1,long,pencil_long_black,pencil,[0.41],4718,37,,[],39,Yes,would be very interested to know what is being studied here and what the results are.,2,2,Male,English,Firefox,Windows,768,1366,4.33185,
17,condition1,clean-shaven,man_old_cleanshaven,man,[0.09],2417,38,,[],39,Yes,would be very interested to know what is being studied here and what the results are.,2,2,Male,English,Firefox,Windows,768,1366,4.33185,
17,condition1,glossy,nails_black_glossy,nails,[0.25],3222,39,,[],39,Yes,would be very interested to know what is being studied here and what the results are.,2,2,Male,English,Firefox,Windows,768,1366,4.33185,
17,condition1,happy,woman_old_happy,woman,[0.83],3028,40,,[],39,Yes,would be very interested to know what is being studied here and what the results are.,2,2,Male,English,Firefox,Windows,768,1366,4.33185,
17,condition1,matte,nails_black_matte,nails,[0.04],4590,41,,[],39,Yes,would be very interested to know what is being studied here and what the results are.,2,2,Male,English,Firefox,Windows,768,1366,4.33185,
17,condition1,short,pencil_short_black,pencil,[0.44],3131,42,,[],39,Yes,would be very interested to know what is being studied here and what the results are.,2,2,Male,English,Firefox,Windows,768,1366,4.33185,
17,condition1,skinny,woman2_happy_skinny,woman,[0.58],5111,43,,[],39,Yes,would be very interested to know what is being studied here and what the results are.,2,2,Male,English,Firefox,Windows,768,1366,4.33185,
17,condition1,metal,spoon_metal_clean,spoon,[0],3323,44,,[],39,Yes,would be very interested to know what is being studied here and what the results are.,2,2,Male,English,Firefox,Windows,768,1366,4.33185,
17,condition1,high,table_metal_high,table,[0.5],3636,45,,[],39,Yes,would be very interested to know what is being studied here and what the results are.,2,2,Male,English,Firefox,Windows,768,1366,4.33185,
17,condition1,cardboard,box_closed_cardboard,box,[0.06],3020,46,,[],39,Yes,would be very interested to know what is being studied here and what the results are.,2,2,Male,English,Firefox,Windows,768,1366,4.33185,
17,condition1,black,nails_black_glossy,nails,[0.21],4284,47,,[],39,Yes,would be very interested to know what is being studied here and what the results are.,2,2,Male,English,Firefox,Windows,768,1366,4.33185,
17,condition1,dirty,spoon_metal_dirty,spoon,[0.42],6490,48,,[],39,Yes,would be very interested to know what is being studied here and what the results are.,2,2,Male,English,Firefox,Windows,768,1366,4.33185,
11,condition1,,,Patricia,Patricia,0,1,bot_check,[],22,Yes,,3,1,Female,English,Chrome,Mac,800,1280,3.0396,
11,condition1,short,pencil_short_black,pencil,[0.52],10789,3,,[],22,Yes,,3,1,Female,English,Chrome,Mac,800,1280,3.0396,
11,condition1,young,man_young_bearded,man,[0.33],3687,4,,[],22,Yes,,3,1,Female,English,Chrome,Mac,800,1280,3.0396,
11,condition1,black and white,picture_bw_rectangular,picture,[0.52],6847,5,,[],22,Yes,,3,1,Female,English,Chrome,Mac,800,1280,3.0396,
11,condition1,colored,picture_colored_rectangular,picture,[0.21],8681,6,,[],22,Yes,,3,1,Female,English,Chrome,Mac,800,1280,3.0396,
11,condition1,round,earring_big_round,earring,[0],4877,7,,[],22,Yes,,3,1,Female,English,Chrome,Mac,800,1280,3.0396,
11,condition1,closed,box_closed_cardboard,box,[0],3248,8,,[],22,Yes,,3,1,Female,English,Chrome,Mac,800,1280,3.0396,
11,condition1,glossy,nails_black_glossy,nails,[0.31],6165,9,,[],22,Yes,,3,1,Female,English,Chrome,Mac,800,1280,3.0396,
11,condition1,low,table_metal_low,table,[0.63],3848,10,,[],22,Yes,,3,1,Female,English,Chrome,Mac,800,1280,3.0396,
11,condition1,long,pencil_long_black,pencil,[0.69],2318,11,,[],22,Yes,,3,1,Female,English,Chrome,Mac,800,1280,3.0396,
11,condition1,metal,spoon_metal_clean,spoon,[0],3032,12,,[],22,Yes,,3,1,Female,English,Chrome,Mac,800,1280,3.0396,
11,condition1,fat,woman2_happy_fat,woman,[0.64],2390,13,,[],22,Yes,,3,1,Female,English,Chrome,Mac,800,1280,3.0396,
11,condition1,striped,frog_striped_green,frog,[0],3048,14,,[],22,Yes,,3,1,Female,English,Chrome,Mac,800,1280,3.0396,
11,condition1,dry,shorts_dry_green,shorts,[0],2581,15,,[],22,Yes,,3,1,Female,English,Chrome,Mac,800,1280,3.0396,
11,condition1,clean-shaven,man_old_cleanshaven,man,[0.21],4775,16,,[],22,Yes,,3,1,Female,English,Chrome,Mac,800,1280,3.0396,
11,condition1,triangular,earring_big_triangular,earring,[0],2697,17,,[],22,Yes,,3,1,Female,English,Chrome,Mac,800,1280,3.0396,
11,condition1,dirty,spoon_metal_dirty,spoon,[0.72],2174,18,,[],22,Yes,,3,1,Female,English,Chrome,Mac,800,1280,3.0396,
11,condition1,big,bottle_glass_big,bottle,[0.69],1937,19,,[],22,Yes,,3,1,Female,English,Chrome,Mac,800,1280,3.0396,
11,condition1,curly,hair_curly_blonde,hair,[0.22],4464,20,,[],22,Yes,,3,1,Female,English,Chrome,Mac,800,1280,3.0396,
11,condition1,wet,shorts_wet_green,shorts,[0.21],4830,21,,[],22,Yes,,3,1,Female,English,Chrome,Mac,800,1280,3.0396,
11,condition1,mustache-touting,man2_mustached_glassed,man,[0.69],3332,22,,[],22,Yes,,3,1,Female,English,Chrome,Mac,800,1280,3.0396,
11,condition1,brown,hair_curly_brown,hair,[0],2633,23,,[],22,Yes,,3,1,Female,English,Chrome,Mac,800,1280,3.0396,
11,condition1,sad,woman_old_sad,woman,[0.69],3492,24,,[],22,Yes,,3,1,Female,English,Chrome,Mac,800,1280,3.0396,
11,condition1,wooden,spoon_wooden_clean,spoon,[0],2801,25,,[],22,Yes,,3,1,Female,English,Chrome,Mac,800,1280,3.0396,
11,condition1,blue,pencil_long_blue,pencil,[0],2577,26,,[],22,Yes,,3,1,Female,English,Chrome,Mac,800,1280,3.0396,
11,condition1,square,picture_bw_square,picture,[0],2061,27,,[],22,Yes,,3,1,Female,English,Chrome,Mac,800,1280,3.0396,
11,condition1,black,nails_black_glossy,nails,[0],2026,28,,[],22,Yes,,3,1,Female,English,Chrome,Mac,800,1280,3.0396,
11,condition1,plastic,bottle_plastic_big,bottle,[0],2518,29,,[],22,Yes,,3,1,Female,English,Chrome,Mac,800,1280,3.0396,
11,condition1,straight,hair_straight_blond,hair,[0],2441,30,,[],22,Yes,,3,1,Female,English,Chrome,Mac,800,1280,3.0396,
11,condition1,red,frog_spotted_red,frog,[0],2302,31,,[],22,Yes,,3,1,Female,English,Chrome,Mac,800,1280,3.0396,
11,condition1,glasses-wearing,man2_bearded_glassed,man,[0],2826,32,,[],22,Yes,,3,1,Female,English,Chrome,Mac,800,1280,3.0396,
11,condition1,blond,hair_curly_blonde,hair,[0.17],3092,33,,[],22,Yes,,3,1,Female,English,Chrome,Mac,800,1280,3.0396,
11,condition1,bearded,man_old_bearded,man,[0],1962,34,,[],22,Yes,,3,1,Female,English,Chrome,Mac,800,1280,3.0396,
11,condition1,clean,spoon_metal_clean,spoon,[0.68],2502,35,,[],22,Yes,,3,1,Female,English,Chrome,Mac,800,1280,3.0396,
11,condition1,high,table_metal_high,table,[0.74],2125,36,,[],22,Yes,,3,1,Female,English,Chrome,Mac,800,1280,3.0396,
11,condition1,skinny,woman2_happy_skinny,woman,[0.74],2201,37,,[],22,Yes,,3,1,Female,English,Chrome,Mac,800,1280,3.0396,
11,condition1,old,man_old_bearded,man,[0.67],5658,38,,[],22,Yes,,3,1,Female,English,Chrome,Mac,800,1280,3.0396,
11,condition1,small,bottle_glass_small,bottle,[0.73],2817,39,,[],22,Yes,,3,1,Female,English,Chrome,Mac,800,1280,3.0396,
11,condition1,spotted,frog_spotted_green,frog,[0],2830,40,,[],22,Yes,,3,1,Female,English,Chrome,Mac,800,1280,3.0396,
11,condition1,matte,nails_black_matte,nails,[0.04],5050,41,,[],22,Yes,,3,1,Female,English,Chrome,Mac,800,1280,3.0396,
11,condition1,green,frog_spotted_green,frog,[0],2805,42,,[],22,Yes,,3,1,Female,English,Chrome,Mac,800,1280,3.0396,
11,condition1,happy,woman_old_happy,woman,[0.67],4088,43,,[],22,Yes,,3,1,Female,English,Chrome,Mac,800,1280,3.0396,
11,condition1,hat-wearing,man2_bearded_hatted,man,[0],2865,44,,[],22,Yes,,3,1,Female,English,Chrome,Mac,800,1280,3.0396,
11,condition1,glass,bottle_glass_big,bottle,[0],2278,45,,[],22,Yes,,3,1,Female,English,Chrome,Mac,800,1280,3.0396,
11,condition1,rectangular,picture_bw_rectangular,picture,[0],1834,46,,[],22,Yes,,3,1,Female,English,Chrome,Mac,800,1280,3.0396,
11,condition1,open,box_open_cardboard,box,[0],2262,47,,[],22,Yes,,3,1,Female,English,Chrome,Mac,800,1280,3.0396,
11,condition1,cardboard,box_closed_cardboard,box,[0],1930,48,,[],22,Yes,,3,1,Female,English,Chrome,Mac,800,1280,3.0396,
19,condition1,,,Barbara,Barbara,0,1,bot_check,[],35,No,Nice and simple.  There was no confusion in instructions.  I hope my data helps.,1,2,Male,English,Firefox,Windows,864,1536,5.3670333333333335,
19,condition1,rectangular,picture_bw_rectangular,picture,[0.33],23877,3,,[],35,No,Nice and simple.  There was no confusion in instructions.  I hope my data helps.,1,2,Male,English,Firefox,Windows,864,1536,5.3670333333333335,
19,condition1,plastic,bottle_plastic_big,bottle,[0.1],6656,4,,[],35,No,Nice and simple.  There was no confusion in instructions.  I hope my data helps.,1,2,Male,English,Firefox,Windows,864,1536,5.3670333333333335,
19,condition1,sad,woman_old_sad,woman,[0.88],7856,5,,[],35,No,Nice and simple.  There was no confusion in instructions.  I hope my data helps.,1,2,Male,English,Firefox,Windows,864,1536,5.3670333333333335,
19,condition1,curly,hair_curly_blonde,hair,[0.55],7216,6,,[],35,No,Nice and simple.  There was no confusion in instructions.  I hope my data helps.,1,2,Male,English,Firefox,Windows,864,1536,5.3670333333333335,
19,condition1,high,table_metal_high,table,[0.94],10080,7,,[],35,No,Nice and simple.  There was no confusion in instructions.  I hope my data helps.,1,2,Male,English,Firefox,Windows,864,1536,5.3670333333333335,
19,condition1,wet,shorts_wet_green,shorts,[0.03],8872,8,,[],35,No,Nice and simple.  There was no confusion in instructions.  I hope my data helps.,1,2,Male,English,Firefox,Windows,864,1536,5.3670333333333335,
19,condition1,dirty,spoon_metal_dirty,spoon,[0.3],8560,9,,[],35,No,Nice and simple.  There was no confusion in instructions.  I hope my data helps.,1,2,Male,English,Firefox,Windows,864,1536,5.3670333333333335,
19,condition1,matte,nails_black_matte,nails,[0],5496,10,,[],35,No,Nice and simple.  There was no confusion in instructions.  I hope my data helps.,1,2,Male,English,Firefox,Windows,864,1536,5.3670333333333335,
19,condition1,clean,spoon_metal_clean,spoon,[0.04],5335,11,,[],35,No,Nice and simple.  There was no confusion in instructions.  I hope my data helps.,1,2,Male,English,Firefox,Windows,864,1536,5.3670333333333335,
19,condition1,glasses-wearing,man2_bearded_glassed,man,[0],5713,12,,[],35,No,Nice and simple.  There was no confusion in instructions.  I hope my data helps.,1,2,Male,English,Firefox,Windows,864,1536,5.3670333333333335,
19,condition1,triangular,earring_big_triangular,earring,[0.32],4936,13,,[],35,No,Nice and simple.  There was no confusion in instructions.  I hope my data helps.,1,2,Male,English,Firefox,Windows,864,1536,5.3670333333333335,
19,condition1,clean-shaven,man_old_cleanshaven,man,[0],26847,14,,[],35,No,Nice and simple.  There was no confusion in instructions.  I hope my data helps.,1,2,Male,English,Firefox,Windows,864,1536,5.3670333333333335,
19,condition1,square,picture_bw_square,picture,[0],6976,15,,[],35,No,Nice and simple.  There was no confusion in instructions.  I hope my data helps.,1,2,Male,English,Firefox,Windows,864,1536,5.3670333333333335,
19,condition1,black and white,picture_bw_rectangular,picture,[0.13],7224,16,,[],35,No,Nice and simple.  There was no confusion in instructions.  I hope my data helps.,1,2,Male,English,Firefox,Windows,864,1536,5.3670333333333335,
19,condition1,striped,frog_striped_green,frog,[0],5640,17,,[],35,No,Nice and simple.  There was no confusion in instructions.  I hope my data helps.,1,2,Male,English,Firefox,Windows,864,1536,5.3670333333333335,
19,condition1,cardboard,box_closed_cardboard,box,[0],3184,18,,[],35,No,Nice and simple.  There was no confusion in instructions.  I hope my data helps.,1,2,Male,English,Firefox,Windows,864,1536,5.3670333333333335,
19,condition1,hat-wearing,man2_bearded_hatted,man,[0],2951,19,,[],35,No,Nice and simple.  There was no confusion in instructions.  I hope my data helps.,1,2,Male,English,Firefox,Windows,864,1536,5.3670333333333335,
19,condition1,short,pencil_short_black,pencil,[0.83],7144,20,,[],35,No,Nice and simple.  There was no confusion in instructions.  I hope my data helps.,1,2,Male,English,Firefox,Windows,864,1536,5.3670333333333335,
19,condition1,long,pencil_long_black,pencil,[0.76],3872,21,,[],35,No,Nice and simple.  There was no confusion in instructions.  I hope my data helps.,1,2,Male,English,Firefox,Windows,864,1536,5.3670333333333335,
19,condition1,low,table_metal_low,table,[0.7],2416,22,,[],35,No,Nice and simple.  There was no confusion in instructions.  I hope my data helps.,1,2,Male,English,Firefox,Windows,864,1536,5.3670333333333335,
19,condition1,glass,bottle_glass_big,bottle,[0],3320,23,,[],35,No,Nice and simple.  There was no confusion in instructions.  I hope my data helps.,1,2,Male,English,Firefox,Windows,864,1536,5.3670333333333335,
19,condition1,glossy,nails_black_glossy,nails,[0.05],4360,24,,[],35,No,Nice and simple.  There was no confusion in instructions.  I hope my data helps.,1,2,Male,English,Firefox,Windows,864,1536,5.3670333333333335,
19,condition1,green,frog_spotted_green,frog,[0.5],7176,25,,[],35,No,Nice and simple.  There was no confusion in instructions.  I hope my data helps.,1,2,Male,English,Firefox,Windows,864,1536,5.3670333333333335,
19,condition1,wooden,spoon_wooden_clean,spoon,[0.26],4895,26,,[],35,No,Nice and simple.  There was no confusion in instructions.  I hope my data helps.,1,2,Male,English,Firefox,Windows,864,1536,5.3670333333333335,
19,condition1,blond,hair_curly_blonde,hair,[0.05],2968,27,,[],35,No,Nice and simple.  There was no confusion in instructions.  I hope my data helps.,1,2,Male,English,Firefox,Windows,864,1536,5.3670333333333335,
19,condition1,closed,box_closed_cardboard,box,[0],2904,28,,[],35,No,Nice and simple.  There was no confusion in instructions.  I hope my data helps.,1,2,Male,English,Firefox,Windows,864,1536,5.3670333333333335,
19,condition1,open,box_open_cardboard,box,[0],3040,29,,[],35,No,Nice and simple.  There was no confusion in instructions.  I hope my data helps.,1,2,Male,English,Firefox,Windows,864,1536,5.3670333333333335,
19,condition1,brown,hair_curly_brown,hair,[0.5],4367,30,,[],35,No,Nice and simple.  There was no confusion in instructions.  I hope my data helps.,1,2,Male,English,Firefox,Windows,864,1536,5.3670333333333335,
19,condition1,bearded,man_old_bearded,man,[0.4],5384,31,,[],35,No,Nice and simple.  There was no confusion in instructions.  I hope my data helps.,1,2,Male,English,Firefox,Windows,864,1536,5.3670333333333335,
19,condition1,small,bottle_glass_small,bottle,[0.81],5360,32,,[],35,No,Nice and simple.  There was no confusion in instructions.  I hope my data helps.,1,2,Male,English,Firefox,Windows,864,1536,5.3670333333333335,
19,condition1,old,man_old_bearded,man,[0.91],4016,33,,[],35,No,Nice and simple.  There was no confusion in instructions.  I hope my data helps.,1,2,Male,English,Firefox,Windows,864,1536,5.3670333333333335,
19,condition1,dry,shorts_dry_green,shorts,[0.16],4551,34,,[],35,No,Nice and simple.  There was no confusion in instructions.  I hope my data helps.,1,2,Male,English,Firefox,Windows,864,1536,5.3670333333333335,
19,condition1,black,nails_black_glossy,nails,[0.34],3992,35,,[],35,No,Nice and simple.  There was no confusion in instructions.  I hope my data helps.,1,2,Male,English,Firefox,Windows,864,1536,5.3670333333333335,
19,condition1,skinny,woman2_happy_skinny,woman,[0.81],2776,36,,[],35,No,Nice and simple.  There was no confusion in instructions.  I hope my data helps.,1,2,Male,English,Firefox,Windows,864,1536,5.3670333333333335,
19,condition1,happy,woman_old_happy,woman,[1],4488,37,,[],35,No,Nice and simple.  There was no confusion in instructions.  I hope my data helps.,1,2,Male,English,Firefox,Windows,864,1536,5.3670333333333335,
19,condition1,blue,pencil_long_blue,pencil,[0.77],2279,38,,[],35,No,Nice and simple.  There was no confusion in instructions.  I hope my data helps.,1,2,Male,English,Firefox,Windows,864,1536,5.3670333333333335,
19,condition1,mustache-touting,man2_mustached_glassed,man,[0.28],9663,39,,[],35,No,Nice and simple.  There was no confusion in instructions.  I hope my data helps.,1,2,Male,English,Firefox,Windows,864,1536,5.3670333333333335,
19,condition1,round,earring_big_round,earring,[0.06],4817,40,,[],35,No,Nice and simple.  There was no confusion in instructions.  I hope my data helps.,1,2,Male,English,Firefox,Windows,864,1536,5.3670333333333335,
19,condition1,colored,picture_colored_rectangular,picture,[0.18],4744,41,,[],35,No,Nice and simple.  There was no confusion in instructions.  I hope my data helps.,1,2,Male,English,Firefox,Windows,864,1536,5.3670333333333335,
19,condition1,fat,woman2_happy_fat,woman,[0.62],6288,42,,[],35,No,Nice and simple.  There was no confusion in instructions.  I hope my data helps.,1,2,Male,English,Firefox,Windows,864,1536,5.3670333333333335,
19,condition1,young,man_young_bearded,man,[0.95],2904,43,,[],35,No,Nice and simple.  There was no confusion in instructions.  I hope my data helps.,1,2,Male,English,Firefox,Windows,864,1536,5.3670333333333335,
19,condition1,big,bottle_glass_big,bottle,[0.84],2399,44,,[],35,No,Nice and simple.  There was no confusion in instructions.  I hope my data helps.,1,2,Male,English,Firefox,Windows,864,1536,5.3670333333333335,
19,condition1,straight,hair_straight_blond,hair,[0.17],4833,45,,[],35,No,Nice and simple.  There was no confusion in instructions.  I hope my data helps.,1,2,Male,English,Firefox,Windows,864,1536,5.3670333333333335,
19,condition1,spotted,frog_spotted_green,frog,[0.03],2447,46,,[],35,No,Nice and simple.  There was no confusion in instructions.  I hope my data helps.,1,2,Male,English,Firefox,Windows,864,1536,5.3670333333333335,
19,condition1,metal,spoon_metal_clean,spoon,[0],2368,47,,[],35,No,Nice and simple.  There was no confusion in instructions.  I hope my data helps.,1,2,Male,English,Firefox,Windows,864,1536,5.3670333333333335,
19,condition1,red,frog_spotted_red,frog,[0.74],2704,48,,[],35,No,Nice and simple.  There was no confusion in instructions.  I hope my data helps.,1,2,Male,English,Firefox,Windows,864,1536,5.3670333333333335,
28,condition1,,,Patricia,Patricia,0,1,bot_check,[],37,Yes,An example of objective and subjective would have helped up front. ,3,0,Male,english,Chrome,Windows,1080,1920,13.443983333333334,
28,condition1,brown,hair_curly_brown,hair,[1],19747,3,,[],37,Yes,An example of objective and subjective would have helped up front. ,3,0,Male,english,Chrome,Windows,1080,1920,13.443983333333334,
28,condition1,wooden,spoon_wooden_clean,spoon,[0.32],4318,4,,[],37,Yes,An example of objective and subjective would have helped up front. ,3,0,Male,english,Chrome,Windows,1080,1920,13.443983333333334,
28,condition1,low,table_metal_low,table,[0.51],5032,5,,[],37,Yes,An example of objective and subjective would have helped up front. ,3,0,Male,english,Chrome,Windows,1080,1920,13.443983333333334,
28,condition1,straight,hair_straight_blond,hair,[0.7],7596,6,,[],37,Yes,An example of objective and subjective would have helped up front. ,3,0,Male,english,Chrome,Windows,1080,1920,13.443983333333334,
28,condition1,striped,frog_striped_green,frog,[1],3962,7,,[],37,Yes,An example of objective and subjective would have helped up front. ,3,0,Male,english,Chrome,Windows,1080,1920,13.443983333333334,
28,condition1,blond,hair_curly_blonde,hair,[1],3536,8,,[],37,Yes,An example of objective and subjective would have helped up front. ,3,0,Male,english,Chrome,Windows,1080,1920,13.443983333333334,
28,condition1,glasses-wearing,man2_bearded_glassed,man,[1],3190,9,,[],37,Yes,An example of objective and subjective would have helped up front. ,3,0,Male,english,Chrome,Windows,1080,1920,13.443983333333334,
28,condition1,closed,box_closed_cardboard,box,[0.45],3992,10,,[],37,Yes,An example of objective and subjective would have helped up front. ,3,0,Male,english,Chrome,Windows,1080,1920,13.443983333333334,
28,condition1,open,box_open_cardboard,box,[0.42],1970,11,,[],37,Yes,An example of objective and subjective would have helped up front. ,3,0,Male,english,Chrome,Windows,1080,1920,13.443983333333334,
28,condition1,red,frog_spotted_red,frog,[0.52],3610,12,,[],37,Yes,An example of objective and subjective would have helped up front. ,3,0,Male,english,Chrome,Windows,1080,1920,13.443983333333334,
28,condition1,round,earring_big_round,earring,[0.49],4814,13,,[],37,Yes,An example of objective and subjective would have helped up front. ,3,0,Male,english,Chrome,Windows,1080,1920,13.443983333333334,
28,condition1,short,pencil_short_black,pencil,[0.49],95473,14,,[],37,Yes,An example of objective and subjective would have helped up front. ,3,0,Male,english,Chrome,Windows,1080,1920,13.443983333333334,
28,condition1,blue,pencil_long_blue,pencil,[0.74],5263,15,,[],37,Yes,An example of objective and subjective would have helped up front. ,3,0,Male,english,Chrome,Windows,1080,1920,13.443983333333334,
28,condition1,matte,nails_black_matte,nails,[0.77],150348,16,,[],37,Yes,An example of objective and subjective would have helped up front. ,3,0,Male,english,Chrome,Windows,1080,1920,13.443983333333334,
28,condition1,cardboard,box_closed_cardboard,box,[1],2866,17,,[],37,Yes,An example of objective and subjective would have helped up front. ,3,0,Male,english,Chrome,Windows,1080,1920,13.443983333333334,
28,condition1,young,man_young_bearded,man,[0.8],4080,18,,[],37,Yes,An example of objective and subjective would have helped up front. ,3,0,Male,english,Chrome,Windows,1080,1920,13.443983333333334,
28,condition1,black,nails_black_glossy,nails,[0.94],4792,19,,[],37,Yes,An example of objective and subjective would have helped up front. ,3,0,Male,english,Chrome,Windows,1080,1920,13.443983333333334,
28,condition1,small,bottle_glass_small,bottle,[0.95],3905,20,,[],37,Yes,An example of objective and subjective would have helped up front. ,3,0,Male,english,Chrome,Windows,1080,1920,13.443983333333334,
28,condition1,glass,bottle_glass_big,bottle,[0.69],29475,21,,[],37,Yes,An example of objective and subjective would have helped up front. ,3,0,Male,english,Chrome,Windows,1080,1920,13.443983333333334,
28,condition1,curly,hair_curly_blonde,hair,[1],3266,22,,[],37,Yes,An example of objective and subjective would have helped up front. ,3,0,Male,english,Chrome,Windows,1080,1920,13.443983333333334,
28,condition1,spotted,frog_spotted_green,frog,[0.96],5966,23,,[],37,Yes,An example of objective and subjective would have helped up front. ,3,0,Male,english,Chrome,Windows,1080,1920,13.443983333333334,
28,condition1,sad,woman_old_sad,woman,[0.05],29346,24,,[],37,Yes,An example of objective and subjective would have helped up front. ,3,0,Male,english,Chrome,Windows,1080,1920,13.443983333333334,
28,condition1,hat-wearing,man2_bearded_hatted,man,[0.89],4785,25,,[],37,Yes,An example of objective and subjective would have helped up front. ,3,0,Male,english,Chrome,Windows,1080,1920,13.443983333333334,
28,condition1,clean,spoon_metal_clean,spoon,[0.76],56185,26,,[],37,Yes,An example of objective and subjective would have helped up front. ,3,0,Male,english,Chrome,Windows,1080,1920,13.443983333333334,
28,condition1,triangular,earring_big_triangular,earring,[0.61],3341,27,,[],37,Yes,An example of objective and subjective would have helped up front. ,3,0,Male,english,Chrome,Windows,1080,1920,13.443983333333334,
28,condition1,metal,spoon_metal_clean,spoon,[0.51],3560,28,,[],37,Yes,An example of objective and subjective would have helped up front. ,3,0,Male,english,Chrome,Windows,1080,1920,13.443983333333334,
28,condition1,skinny,woman2_happy_skinny,woman,[0.97],6196,29,,[],37,Yes,An example of objective and subjective would have helped up front. ,3,0,Male,english,Chrome,Windows,1080,1920,13.443983333333334,
28,condition1,big,bottle_glass_big,bottle,[0.86],3526,30,,[],37,Yes,An example of objective and subjective would have helped up front. ,3,0,Male,english,Chrome,Windows,1080,1920,13.443983333333334,
28,condition1,rectangular,picture_bw_rectangular,picture,[1],4760,31,,[],37,Yes,An example of objective and subjective would have helped up front. ,3,0,Male,english,Chrome,Windows,1080,1920,13.443983333333334,
28,condition1,clean-shaven,man_old_cleanshaven,man,[1],2273,32,,[],37,Yes,An example of objective and subjective would have helped up front. ,3,0,Male,english,Chrome,Windows,1080,1920,13.443983333333334,
28,condition1,wet,shorts_wet_green,shorts,[0.91],4746,33,,[],37,Yes,An example of objective and subjective would have helped up front. ,3,0,Male,english,Chrome,Windows,1080,1920,13.443983333333334,
28,condition1,black and white,picture_bw_rectangular,picture,[0.51],23552,34,,[],37,Yes,An example of objective and subjective would have helped up front. ,3,0,Male,english,Chrome,Windows,1080,1920,13.443983333333334,
28,condition1,square,picture_bw_square,picture,[0.91],3617,35,,[],37,Yes,An example of objective and subjective would have helped up front. ,3,0,Male,english,Chrome,Windows,1080,1920,13.443983333333334,
28,condition1,bearded,man_old_bearded,man,[0.95],3846,36,,[],37,Yes,An example of objective and subjective would have helped up front. ,3,0,Male,english,Chrome,Windows,1080,1920,13.443983333333334,
28,condition1,dirty,spoon_metal_dirty,spoon,[0.39],3210,37,,[],37,Yes,An example of objective and subjective would have helped up front. ,3,0,Male,english,Chrome,Windows,1080,1920,13.443983333333334,
28,condition1,long,pencil_long_black,pencil,[0.66],2471,38,,[],37,Yes,An example of objective and subjective would have helped up front. ,3,0,Male,english,Chrome,Windows,1080,1920,13.443983333333334,
28,condition1,plastic,bottle_plastic_big,bottle,[0.92],65403,39,,[],37,Yes,An example of objective and subjective would have helped up front. ,3,0,Male,english,Chrome,Windows,1080,1920,13.443983333333334,
28,condition1,mustache-touting,man2_mustached_glassed,man,[0.89],25386,40,,[],37,Yes,An example of objective and subjective would have helped up front. ,3,0,Male,english,Chrome,Windows,1080,1920,13.443983333333334,
28,condition1,fat,woman2_happy_fat,woman,[0.95],3125,41,,[],37,Yes,An example of objective and subjective would have helped up front. ,3,0,Male,english,Chrome,Windows,1080,1920,13.443983333333334,
28,condition1,happy,woman_old_happy,woman,[0.63],5691,42,,[],37,Yes,An example of objective and subjective would have helped up front. ,3,0,Male,english,Chrome,Windows,1080,1920,13.443983333333334,
28,condition1,dry,shorts_dry_green,shorts,[0.59],2368,43,,[],37,Yes,An example of objective and subjective would have helped up front. ,3,0,Male,english,Chrome,Windows,1080,1920,13.443983333333334,
28,condition1,old,man_old_bearded,man,[0.85],6870,44,,[],37,Yes,An example of objective and subjective would have helped up front. ,3,0,Male,english,Chrome,Windows,1080,1920,13.443983333333334,
28,condition1,glossy,nails_black_glossy,nails,[0.96],2298,45,,[],37,Yes,An example of objective and subjective would have helped up front. ,3,0,Male,english,Chrome,Windows,1080,1920,13.443983333333334,
28,condition1,green,frog_spotted_green,frog,[0.58],27011,46,,[],37,Yes,An example of objective and subjective would have helped up front. ,3,0,Male,english,Chrome,Windows,1080,1920,13.443983333333334,
28,condition1,high,table_metal_high,table,[0.76],4511,47,,[],37,Yes,An example of objective and subjective would have helped up front. ,3,0,Male,english,Chrome,Windows,1080,1920,13.443983333333334,
28,condition1,colored,picture_colored_rectangular,picture,[0.66],100625,48,,[],37,Yes,An example of objective and subjective would have helped up front. ,3,0,Male,english,Chrome,Windows,1080,1920,13.443983333333334,
26,condition1,,,Margaret,Margaret,0,1,bot_check,[],30,Yes,,4,1,Female,English,Chrome,Windows,720,1280,5.965066666666667,
26,condition1,low,table_metal_low,table,[0.13],65398,3,,[],30,Yes,,4,1,Female,English,Chrome,Windows,720,1280,5.965066666666667,
26,condition1,rectangular,picture_bw_rectangular,picture,[0.01],5212,4,,[],30,Yes,,4,1,Female,English,Chrome,Windows,720,1280,5.965066666666667,
26,condition1,old,man_old_bearded,man,[0.53],9851,5,,[],30,Yes,,4,1,Female,English,Chrome,Windows,720,1280,5.965066666666667,
26,condition1,matte,nails_black_matte,nails,[0.11],5753,6,,[],30,Yes,,4,1,Female,English,Chrome,Windows,720,1280,5.965066666666667,
26,condition1,square,picture_bw_square,picture,[0],4037,7,,[],30,Yes,,4,1,Female,English,Chrome,Windows,720,1280,5.965066666666667,
26,condition1,big,bottle_glass_big,bottle,[0.66],8606,8,,[],30,Yes,,4,1,Female,English,Chrome,Windows,720,1280,5.965066666666667,
26,condition1,triangular,earring_big_triangular,earring,[0],4510,9,,[],30,Yes,,4,1,Female,English,Chrome,Windows,720,1280,5.965066666666667,
26,condition1,glass,bottle_glass_big,bottle,[0.01],4458,10,,[],30,Yes,,4,1,Female,English,Chrome,Windows,720,1280,5.965066666666667,
26,condition1,striped,frog_striped_green,frog,[0.08],5242,11,,[],30,Yes,,4,1,Female,English,Chrome,Windows,720,1280,5.965066666666667,
26,condition1,curly,hair_curly_blonde,hair,[0.57],6962,12,,[],30,Yes,,4,1,Female,English,Chrome,Windows,720,1280,5.965066666666667,
26,condition1,dirty,spoon_metal_dirty,spoon,[0.88],4838,13,,[],30,Yes,,4,1,Female,English,Chrome,Windows,720,1280,5.965066666666667,
26,condition1,plastic,bottle_plastic_big,bottle,[0.02],4276,14,,[],30,Yes,,4,1,Female,English,Chrome,Windows,720,1280,5.965066666666667,
26,condition1,glasses-wearing,man2_bearded_glassed,man,[0.03],10710,15,,[],30,Yes,,4,1,Female,English,Chrome,Windows,720,1280,5.965066666666667,
26,condition1,clean,spoon_metal_clean,spoon,[0.83],4409,16,,[],30,Yes,,4,1,Female,English,Chrome,Windows,720,1280,5.965066666666667,
26,condition1,wooden,spoon_wooden_clean,spoon,[0.02],3565,17,,[],30,Yes,,4,1,Female,English,Chrome,Windows,720,1280,5.965066666666667,
26,condition1,closed,box_closed_cardboard,box,[0.21],6061,18,,[],30,Yes,,4,1,Female,English,Chrome,Windows,720,1280,5.965066666666667,
26,condition1,sad,woman_old_sad,woman,[0.99],6730,19,,[],30,Yes,,4,1,Female,English,Chrome,Windows,720,1280,5.965066666666667,
26,condition1,red,frog_spotted_red,frog,[0.09],3516,20,,[],30,Yes,,4,1,Female,English,Chrome,Windows,720,1280,5.965066666666667,
26,condition1,colored,picture_colored_rectangular,picture,[0.37],7262,21,,[],30,Yes,,4,1,Female,English,Chrome,Windows,720,1280,5.965066666666667,
26,condition1,long,pencil_long_black,pencil,[0.45],8875,22,,[],30,Yes,,4,1,Female,English,Chrome,Windows,720,1280,5.965066666666667,
26,condition1,mustache-touting,man2_mustached_glassed,man,[0.5],7703,23,,[],30,Yes,,4,1,Female,English,Chrome,Windows,720,1280,5.965066666666667,
26,condition1,dry,shorts_dry_green,shorts,[0.14],4788,24,,[],30,Yes,,4,1,Female,English,Chrome,Windows,720,1280,5.965066666666667,
26,condition1,black and white,picture_bw_rectangular,picture,[0.23],7232,25,,[],30,Yes,,4,1,Female,English,Chrome,Windows,720,1280,5.965066666666667,
26,condition1,wet,shorts_wet_green,shorts,[0.24],6752,26,,[],30,Yes,,4,1,Female,English,Chrome,Windows,720,1280,5.965066666666667,
26,condition1,round,earring_big_round,earring,[0.02],4596,27,,[],30,Yes,,4,1,Female,English,Chrome,Windows,720,1280,5.965066666666667,
26,condition1,black,nails_black_glossy,nails,[0.26],7241,28,,[],30,Yes,,4,1,Female,English,Chrome,Windows,720,1280,5.965066666666667,
26,condition1,blue,pencil_long_blue,pencil,[0.23],7131,29,,[],30,Yes,,4,1,Female,English,Chrome,Windows,720,1280,5.965066666666667,
26,condition1,small,bottle_glass_small,bottle,[0.39],6169,30,,[],30,Yes,,4,1,Female,English,Chrome,Windows,720,1280,5.965066666666667,
26,condition1,blond,hair_curly_blonde,hair,[0.12],3937,31,,[],30,Yes,,4,1,Female,English,Chrome,Windows,720,1280,5.965066666666667,
26,condition1,fat,woman2_happy_fat,woman,[0.61],5619,32,,[],30,Yes,,4,1,Female,English,Chrome,Windows,720,1280,5.965066666666667,
26,condition1,high,table_metal_high,table,[0.55],6169,33,,[],30,Yes,,4,1,Female,English,Chrome,Windows,720,1280,5.965066666666667,
26,condition1,glossy,nails_black_glossy,nails,[0.7],4537,34,,[],30,Yes,,4,1,Female,English,Chrome,Windows,720,1280,5.965066666666667,
26,condition1,spotted,frog_spotted_green,frog,[0.23],3396,35,,[],30,Yes,,4,1,Female,English,Chrome,Windows,720,1280,5.965066666666667,
26,condition1,short,pencil_short_black,pencil,[0.29],5639,36,,[],30,Yes,,4,1,Female,English,Chrome,Windows,720,1280,5.965066666666667,
26,condition1,young,man_young_bearded,man,[0.58],5437,37,,[],30,Yes,,4,1,Female,English,Chrome,Windows,720,1280,5.965066666666667,
26,condition1,skinny,woman2_happy_skinny,woman,[0.73],3696,38,,[],30,Yes,,4,1,Female,English,Chrome,Windows,720,1280,5.965066666666667,
26,condition1,cardboard,box_closed_cardboard,box,[0.01],3645,39,,[],30,Yes,,4,1,Female,English,Chrome,Windows,720,1280,5.965066666666667,
26,condition1,brown,hair_curly_brown,hair,[0.12],3075,40,,[],30,Yes,,4,1,Female,English,Chrome,Windows,720,1280,5.965066666666667,
26,condition1,open,box_open_cardboard,box,[0.24],4876,41,,[],30,Yes,,4,1,Female,English,Chrome,Windows,720,1280,5.965066666666667,
26,condition1,metal,spoon_metal_clean,spoon,[0.01],3317,42,,[],30,Yes,,4,1,Female,English,Chrome,Windows,720,1280,5.965066666666667,
26,condition1,happy,woman_old_happy,woman,[0.98],5046,43,,[],30,Yes,,4,1,Female,English,Chrome,Windows,720,1280,5.965066666666667,
26,condition1,straight,hair_straight_blond,hair,[0.35],4326,44,,[],30,Yes,,4,1,Female,English,Chrome,Windows,720,1280,5.965066666666667,
26,condition1,green,frog_spotted_green,frog,[0.1],3665,45,,[],30,Yes,,4,1,Female,English,Chrome,Windows,720,1280,5.965066666666667,
26,condition1,bearded,man_old_bearded,man,[0.3],4368,46,,[],30,Yes,,4,1,Female,English,Chrome,Windows,720,1280,5.965066666666667,
26,condition1,hat-wearing,man2_bearded_hatted,man,[0.35],5388,47,,[],30,Yes,,4,1,Female,English,Chrome,Windows,720,1280,5.965066666666667,
26,condition1,clean-shaven,man_old_cleanshaven,man,[0.35],3575,48,,[],30,Yes,,4,1,Female,English,Chrome,Windows,720,1280,5.965066666666667,
41,condition1,,,Susan,Susan,0,1,bot_check,[],32,Yes,,4,2,Female,English,Chrome,Mac,800,1280,2.56355,
41,condition1,sad,woman_old_sad,woman,[0.84],5992,3,,[],32,Yes,,4,2,Female,English,Chrome,Mac,800,1280,2.56355,
41,condition1,dry,shorts_dry_green,shorts,[0.13],4860,4,,[],32,Yes,,4,2,Female,English,Chrome,Mac,800,1280,2.56355,
41,condition1,cardboard,box_closed_cardboard,box,[0],3474,5,,[],32,Yes,,4,2,Female,English,Chrome,Mac,800,1280,2.56355,
41,condition1,blue,pencil_long_blue,pencil,[0.39],3562,6,,[],32,Yes,,4,2,Female,English,Chrome,Mac,800,1280,2.56355,
41,condition1,happy,woman_old_happy,woman,[0.91],2376,7,,[],32,Yes,,4,2,Female,English,Chrome,Mac,800,1280,2.56355,
41,condition1,dirty,spoon_metal_dirty,spoon,[0.6],4454,8,,[],32,Yes,,4,2,Female,English,Chrome,Mac,800,1280,2.56355,
41,condition1,glossy,nails_black_glossy,nails,[0.51],3493,9,,[],32,Yes,,4,2,Female,English,Chrome,Mac,800,1280,2.56355,
41,condition1,green,frog_spotted_green,frog,[0.38],3090,10,,[],32,Yes,,4,2,Female,English,Chrome,Mac,800,1280,2.56355,
41,condition1,clean,spoon_metal_clean,spoon,[0.64],2846,11,,[],32,Yes,,4,2,Female,English,Chrome,Mac,800,1280,2.56355,
41,condition1,wooden,spoon_wooden_clean,spoon,[0],2327,12,,[],32,Yes,,4,2,Female,English,Chrome,Mac,800,1280,2.56355,
41,condition1,hat-wearing,man2_bearded_hatted,man,[0.13],4107,13,,[],32,Yes,,4,2,Female,English,Chrome,Mac,800,1280,2.56355,
41,condition1,small,bottle_glass_small,bottle,[0.38],3134,14,,[],32,Yes,,4,2,Female,English,Chrome,Mac,800,1280,2.56355,
41,condition1,metal,spoon_metal_clean,spoon,[0.24],2762,15,,[],32,Yes,,4,2,Female,English,Chrome,Mac,800,1280,2.56355,
41,condition1,open,box_open_cardboard,box,[0.4],2768,16,,[],32,Yes,,4,2,Female,English,Chrome,Mac,800,1280,2.56355,
41,condition1,plastic,bottle_plastic_big,bottle,[0.21],2276,17,,[],32,Yes,,4,2,Female,English,Chrome,Mac,800,1280,2.56355,
41,condition1,glass,bottle_glass_big,bottle,[0.23],2210,18,,[],32,Yes,,4,2,Female,English,Chrome,Mac,800,1280,2.56355,
41,condition1,triangular,earring_big_triangular,earring,[0.01],3564,19,,[],32,Yes,,4,2,Female,English,Chrome,Mac,800,1280,2.56355,
41,condition1,matte,nails_black_matte,nails,[0.34],3350,20,,[],32,Yes,,4,2,Female,English,Chrome,Mac,800,1280,2.56355,
41,condition1,short,pencil_short_black,pencil,[0.61],2398,21,,[],32,Yes,,4,2,Female,English,Chrome,Mac,800,1280,2.56355,
41,condition1,bearded,man_old_bearded,man,[0.39],3014,22,,[],32,Yes,,4,2,Female,English,Chrome,Mac,800,1280,2.56355,
41,condition1,high,table_metal_high,table,[0.62],2878,23,,[],32,Yes,,4,2,Female,English,Chrome,Mac,800,1280,2.56355,
41,condition1,rectangular,picture_bw_rectangular,picture,[0],2010,24,,[],32,Yes,,4,2,Female,English,Chrome,Mac,800,1280,2.56355,
41,condition1,clean-shaven,man_old_cleanshaven,man,[0.57],4272,25,,[],32,Yes,,4,2,Female,English,Chrome,Mac,800,1280,2.56355,
41,condition1,mustache-touting,man2_mustached_glassed,man,[0.32],3654,26,,[],32,Yes,,4,2,Female,English,Chrome,Mac,800,1280,2.56355,
41,condition1,square,picture_bw_square,picture,[0.02],2159,27,,[],32,Yes,,4,2,Female,English,Chrome,Mac,800,1280,2.56355,
41,condition1,brown,hair_curly_brown,hair,[0.37],2501,28,,[],32,Yes,,4,2,Female,English,Chrome,Mac,800,1280,2.56355,
41,condition1,red,frog_spotted_red,frog,[0.36],1938,29,,[],32,Yes,,4,2,Female,English,Chrome,Mac,800,1280,2.56355,
41,condition1,curly,hair_curly_blonde,hair,[0.58],2913,30,,[],32,Yes,,4,2,Female,English,Chrome,Mac,800,1280,2.56355,
41,condition1,low,table_metal_low,table,[0.61],2239,31,,[],32,Yes,,4,2,Female,English,Chrome,Mac,800,1280,2.56355,
41,condition1,straight,hair_straight_blond,hair,[0.44],3372,32,,[],32,Yes,,4,2,Female,English,Chrome,Mac,800,1280,2.56355,
41,condition1,fat,woman2_happy_fat,woman,[0.78],2130,33,,[],32,Yes,,4,2,Female,English,Chrome,Mac,800,1280,2.56355,
41,condition1,black and white,picture_bw_rectangular,picture,[0.41],2982,34,,[],32,Yes,,4,2,Female,English,Chrome,Mac,800,1280,2.56355,
41,condition1,blond,hair_curly_blonde,hair,[0.69],2910,35,,[],32,Yes,,4,2,Female,English,Chrome,Mac,800,1280,2.56355,
41,condition1,long,pencil_long_black,pencil,[0.63],2330,36,,[],32,Yes,,4,2,Female,English,Chrome,Mac,800,1280,2.56355,
41,condition1,spotted,frog_spotted_green,frog,[0.38],2354,37,,[],32,Yes,,4,2,Female,English,Chrome,Mac,800,1280,2.56355,
41,condition1,big,bottle_glass_big,bottle,[0.68],2218,38,,[],32,Yes,,4,2,Female,English,Chrome,Mac,800,1280,2.56355,
41,condition1,striped,frog_striped_green,frog,[0.32],3200,39,,[],32,Yes,,4,2,Female,English,Chrome,Mac,800,1280,2.56355,
41,condition1,old,man_old_bearded,man,[0.59],2177,40,,[],32,Yes,,4,2,Female,English,Chrome,Mac,800,1280,2.56355,
41,condition1,black,nails_black_glossy,nails,[0.13],3144,41,,[],32,Yes,,4,2,Female,English,Chrome,Mac,800,1280,2.56355,
41,condition1,young,man_young_bearded,man,[0.61],2106,42,,[],32,Yes,,4,2,Female,English,Chrome,Mac,800,1280,2.56355,
41,condition1,colored,picture_colored_rectangular,picture,[0.09],4388,43,,[],32,Yes,,4,2,Female,English,Chrome,Mac,800,1280,2.56355,
41,condition1,round,earring_big_round,earring,[0.09],2904,44,,[],32,Yes,,4,2,Female,English,Chrome,Mac,800,1280,2.56355,
41,condition1,wet,shorts_wet_green,shorts,[0.28],2997,45,,[],32,Yes,,4,2,Female,English,Chrome,Mac,800,1280,2.56355,
41,condition1,closed,box_closed_cardboard,box,[0.32],3277,46,,[],32,Yes,,4,2,Female,English,Chrome,Mac,800,1280,2.56355,
41,condition1,skinny,woman2_happy_skinny,woman,[0.89],3067,47,,[],32,Yes,,4,2,Female,English,Chrome,Mac,800,1280,2.56355,
41,condition1,glasses-wearing,man2_bearded_glassed,man,[0.1],2659,48,,[],32,Yes,,4,2,Female,English,Chrome,Mac,800,1280,2.56355,
22,condition1,,,Margaret,Margaret,0,1,bot_check,[],49,Yes,,2,1,Female,english,Chrome,Windows,768,1360,3.831483333333334,
22,condition1,high,table_metal_high,table,[0.85],14896,3,,[],49,Yes,,2,1,Female,english,Chrome,Windows,768,1360,3.831483333333334,
22,condition1,long,pencil_long_black,pencil,[0.76],7178,4,,[],49,Yes,,2,1,Female,english,Chrome,Windows,768,1360,3.831483333333334,
22,condition1,rectangular,picture_bw_rectangular,picture,[0.73],9434,5,,[],49,Yes,,2,1,Female,english,Chrome,Windows,768,1360,3.831483333333334,
22,condition1,small,bottle_glass_small,bottle,[0.76],5496,6,,[],49,Yes,,2,1,Female,english,Chrome,Windows,768,1360,3.831483333333334,
22,condition1,square,picture_bw_square,picture,[0.07],6076,7,,[],49,Yes,,2,1,Female,english,Chrome,Windows,768,1360,3.831483333333334,
22,condition1,cardboard,box_closed_cardboard,box,[0.03],6432,8,,[],49,Yes,,2,1,Female,english,Chrome,Windows,768,1360,3.831483333333334,
22,condition1,black,nails_black_glossy,nails,[0.77],9056,9,,[],49,Yes,,2,1,Female,english,Chrome,Windows,768,1360,3.831483333333334,
22,condition1,dirty,spoon_metal_dirty,spoon,[0.11],7312,10,,[],49,Yes,,2,1,Female,english,Chrome,Windows,768,1360,3.831483333333334,
22,condition1,triangular,earring_big_triangular,earring,[0.14],3318,11,,[],49,Yes,,2,1,Female,english,Chrome,Windows,768,1360,3.831483333333334,
22,condition1,straight,hair_straight_blond,hair,[0.15],5652,12,,[],49,Yes,,2,1,Female,english,Chrome,Windows,768,1360,3.831483333333334,
22,condition1,old,man_old_bearded,man,[0.85],5228,13,,[],49,Yes,,2,1,Female,english,Chrome,Windows,768,1360,3.831483333333334,
22,condition1,happy,woman_old_happy,woman,[0.11],3838,14,,[],49,Yes,,2,1,Female,english,Chrome,Windows,768,1360,3.831483333333334,
22,condition1,big,bottle_glass_big,bottle,[0.24],4348,15,,[],49,Yes,,2,1,Female,english,Chrome,Windows,768,1360,3.831483333333334,
22,condition1,skinny,woman2_happy_skinny,woman,[0.28],4418,16,,[],49,Yes,,2,1,Female,english,Chrome,Windows,768,1360,3.831483333333334,
22,condition1,hat-wearing,man2_bearded_hatted,man,[0.78],4514,17,,[],49,Yes,,2,1,Female,english,Chrome,Windows,768,1360,3.831483333333334,
22,condition1,clean-shaven,man_old_cleanshaven,man,[0.96],4646,18,,[],49,Yes,,2,1,Female,english,Chrome,Windows,768,1360,3.831483333333334,
22,condition1,colored,picture_colored_rectangular,picture,[0.04],5158,19,,[],49,Yes,,2,1,Female,english,Chrome,Windows,768,1360,3.831483333333334,
22,condition1,low,table_metal_low,table,[0.9],4088,20,,[],49,Yes,,2,1,Female,english,Chrome,Windows,768,1360,3.831483333333334,
22,condition1,sad,woman_old_sad,woman,[0.8],4725,21,,[],49,Yes,,2,1,Female,english,Chrome,Windows,768,1360,3.831483333333334,
22,condition1,red,frog_spotted_red,frog,[0.04],4858,22,,[],49,Yes,,2,1,Female,english,Chrome,Windows,768,1360,3.831483333333334,
22,condition1,brown,hair_curly_brown,hair,[0.02],3334,23,,[],49,Yes,,2,1,Female,english,Chrome,Windows,768,1360,3.831483333333334,
22,condition1,striped,frog_striped_green,frog,[0.06],3844,24,,[],49,Yes,,2,1,Female,english,Chrome,Windows,768,1360,3.831483333333334,
22,condition1,glass,bottle_glass_big,bottle,[0.06],2978,25,,[],49,Yes,,2,1,Female,english,Chrome,Windows,768,1360,3.831483333333334,
22,condition1,spotted,frog_spotted_green,frog,[0.92],2832,26,,[],49,Yes,,2,1,Female,english,Chrome,Windows,768,1360,3.831483333333334,
22,condition1,blue,pencil_long_blue,pencil,[0.94],3050,27,,[],49,Yes,,2,1,Female,english,Chrome,Windows,768,1360,3.831483333333334,
22,condition1,fat,woman2_happy_fat,woman,[0.87],3538,28,,[],49,Yes,,2,1,Female,english,Chrome,Windows,768,1360,3.831483333333334,
22,condition1,open,box_open_cardboard,box,[0.09],2761,29,,[],49,Yes,,2,1,Female,english,Chrome,Windows,768,1360,3.831483333333334,
22,condition1,matte,nails_black_matte,nails,[0.09],2295,30,,[],49,Yes,,2,1,Female,english,Chrome,Windows,768,1360,3.831483333333334,
22,condition1,dry,shorts_dry_green,shorts,[0.12],2146,31,,[],49,Yes,,2,1,Female,english,Chrome,Windows,768,1360,3.831483333333334,
22,condition1,clean,spoon_metal_clean,spoon,[0.74],2358,32,,[],49,Yes,,2,1,Female,english,Chrome,Windows,768,1360,3.831483333333334,
22,condition1,plastic,bottle_plastic_big,bottle,[0.75],2540,33,,[],49,Yes,,2,1,Female,english,Chrome,Windows,768,1360,3.831483333333334,
22,condition1,wooden,spoon_wooden_clean,spoon,[0.85],2508,34,,[],49,Yes,,2,1,Female,english,Chrome,Windows,768,1360,3.831483333333334,
22,condition1,bearded,man_old_bearded,man,[0.84],2672,35,,[],49,Yes,,2,1,Female,english,Chrome,Windows,768,1360,3.831483333333334,
22,condition1,green,frog_spotted_green,frog,[0.15],3913,36,,[],49,Yes,,2,1,Female,english,Chrome,Windows,768,1360,3.831483333333334,
22,condition1,young,man_young_bearded,man,[0.17],2548,37,,[],49,Yes,,2,1,Female,english,Chrome,Windows,768,1360,3.831483333333334,
22,condition1,mustache-touting,man2_mustached_glassed,man,[0.16],3970,38,,[],49,Yes,,2,1,Female,english,Chrome,Windows,768,1360,3.831483333333334,
22,condition1,blond,hair_curly_blonde,hair,[0.14],3098,39,,[],49,Yes,,2,1,Female,english,Chrome,Windows,768,1360,3.831483333333334,
22,condition1,closed,box_closed_cardboard,box,[0.15],2712,40,,[],49,Yes,,2,1,Female,english,Chrome,Windows,768,1360,3.831483333333334,
22,condition1,glasses-wearing,man2_bearded_glassed,man,[0.92],3144,41,,[],49,Yes,,2,1,Female,english,Chrome,Windows,768,1360,3.831483333333334,
22,condition1,glossy,nails_black_glossy,nails,[0.88],2752,42,,[],49,Yes,,2,1,Female,english,Chrome,Windows,768,1360,3.831483333333334,
22,condition1,short,pencil_short_black,pencil,[0.11],3130,43,,[],49,Yes,,2,1,Female,english,Chrome,Windows,768,1360,3.831483333333334,
22,condition1,black and white,picture_bw_rectangular,picture,[0.86],4938,44,,[],49,Yes,,2,1,Female,english,Chrome,Windows,768,1360,3.831483333333334,
22,condition1,metal,spoon_metal_clean,spoon,[0.92],2556,45,,[],49,Yes,,2,1,Female,english,Chrome,Windows,768,1360,3.831483333333334,
22,condition1,wet,shorts_wet_green,shorts,[0.09],3176,46,,[],49,Yes,,2,1,Female,english,Chrome,Windows,768,1360,3.831483333333334,
22,condition1,round,earring_big_round,earring,[0.08],3326,47,,[],49,Yes,,2,1,Female,english,Chrome,Windows,768,1360,3.831483333333334,
22,condition1,curly,hair_curly_blonde,hair,[0.15],2154,48,,[],49,Yes,,2,1,Female,english,Chrome,Windows,768,1360,3.831483333333334,
29,condition1,,,Jennifer,Jennifer,0,1,bot_check,[],45,Yes,n/a,2,1,Male,english,Firefox,Windows,1080,1920,3.4697666666666667,
29,condition1,sad,woman_old_sad,woman,[0.86],36889,3,,[],45,Yes,n/a,2,1,Male,english,Firefox,Windows,1080,1920,3.4697666666666667,
29,condition1,green,frog_spotted_green,frog,[0.12],4792,4,,[],45,Yes,n/a,2,1,Male,english,Firefox,Windows,1080,1920,3.4697666666666667,
29,condition1,triangular,earring_big_triangular,earring,[0.06],3350,5,,[],45,Yes,n/a,2,1,Male,english,Firefox,Windows,1080,1920,3.4697666666666667,
29,condition1,cardboard,box_closed_cardboard,box,[0.05],2321,6,,[],45,Yes,n/a,2,1,Male,english,Firefox,Windows,1080,1920,3.4697666666666667,
29,condition1,high,table_metal_high,table,[0.01],2839,7,,[],45,Yes,n/a,2,1,Male,english,Firefox,Windows,1080,1920,3.4697666666666667,
29,condition1,red,frog_spotted_red,frog,[0.08],1720,8,,[],45,Yes,n/a,2,1,Male,english,Firefox,Windows,1080,1920,3.4697666666666667,
29,condition1,glasses-wearing,man2_bearded_glassed,man,[0.06],3774,9,,[],45,Yes,n/a,2,1,Male,english,Firefox,Windows,1080,1920,3.4697666666666667,
29,condition1,hat-wearing,man2_bearded_hatted,man,[0.66],2879,10,,[],45,Yes,n/a,2,1,Male,english,Firefox,Windows,1080,1920,3.4697666666666667,
29,condition1,fat,woman2_happy_fat,woman,[0.35],4272,11,,[],45,Yes,n/a,2,1,Male,english,Firefox,Windows,1080,1920,3.4697666666666667,
29,condition1,blue,pencil_long_blue,pencil,[0.25],2455,12,,[],45,Yes,n/a,2,1,Male,english,Firefox,Windows,1080,1920,3.4697666666666667,
29,condition1,plastic,bottle_plastic_big,bottle,[0.29],2311,13,,[],45,Yes,n/a,2,1,Male,english,Firefox,Windows,1080,1920,3.4697666666666667,
29,condition1,young,man_young_bearded,man,[0.74],2840,14,,[],45,Yes,n/a,2,1,Male,english,Firefox,Windows,1080,1920,3.4697666666666667,
29,condition1,old,man_old_bearded,man,[0.83],2056,15,,[],45,Yes,n/a,2,1,Male,english,Firefox,Windows,1080,1920,3.4697666666666667,
29,condition1,clean-shaven,man_old_cleanshaven,man,[0.87],3176,16,,[],45,Yes,n/a,2,1,Male,english,Firefox,Windows,1080,1920,3.4697666666666667,
29,condition1,low,table_metal_low,table,[0.88],3960,17,,[],45,Yes,n/a,2,1,Male,english,Firefox,Windows,1080,1920,3.4697666666666667,
29,condition1,dirty,spoon_metal_dirty,spoon,[0.22],10495,18,,[],45,Yes,n/a,2,1,Male,english,Firefox,Windows,1080,1920,3.4697666666666667,
29,condition1,skinny,woman2_happy_skinny,woman,[0.56],2608,19,,[],45,Yes,n/a,2,1,Male,english,Firefox,Windows,1080,1920,3.4697666666666667,
29,condition1,matte,nails_black_matte,nails,[0.2],3151,20,,[],45,Yes,n/a,2,1,Male,english,Firefox,Windows,1080,1920,3.4697666666666667,
29,condition1,short,pencil_short_black,pencil,[0.1],2160,21,,[],45,Yes,n/a,2,1,Male,english,Firefox,Windows,1080,1920,3.4697666666666667,
29,condition1,happy,woman_old_happy,woman,[0.95],2769,22,,[],45,Yes,n/a,2,1,Male,english,Firefox,Windows,1080,1920,3.4697666666666667,
29,condition1,clean,spoon_metal_clean,spoon,[0.23],2031,23,,[],45,Yes,n/a,2,1,Male,english,Firefox,Windows,1080,1920,3.4697666666666667,
29,condition1,small,bottle_glass_small,bottle,[0.13],1536,24,,[],45,Yes,n/a,2,1,Male,english,Firefox,Windows,1080,1920,3.4697666666666667,
29,condition1,blond,hair_curly_blonde,hair,[0.09],2600,25,,[],45,Yes,n/a,2,1,Male,english,Firefox,Windows,1080,1920,3.4697666666666667,
29,condition1,open,box_open_cardboard,box,[0.09],2016,26,,[],45,Yes,n/a,2,1,Male,english,Firefox,Windows,1080,1920,3.4697666666666667,
29,condition1,glass,bottle_glass_big,bottle,[0.06],1944,27,,[],45,Yes,n/a,2,1,Male,english,Firefox,Windows,1080,1920,3.4697666666666667,
29,condition1,bearded,man_old_bearded,man,[0.1],1752,28,,[],45,Yes,n/a,2,1,Male,english,Firefox,Windows,1080,1920,3.4697666666666667,
29,condition1,wooden,spoon_wooden_clean,spoon,[0.86],2936,29,,[],45,Yes,n/a,2,1,Male,english,Firefox,Windows,1080,1920,3.4697666666666667,
29,condition1,dry,shorts_dry_green,shorts,[0.28],2328,30,,[],45,Yes,n/a,2,1,Male,english,Firefox,Windows,1080,1920,3.4697666666666667,
29,condition1,round,earring_big_round,earring,[0.18],1592,31,,[],45,Yes,n/a,2,1,Male,english,Firefox,Windows,1080,1920,3.4697666666666667,
29,condition1,curly,hair_curly_blonde,hair,[0.12],1527,32,,[],45,Yes,n/a,2,1,Male,english,Firefox,Windows,1080,1920,3.4697666666666667,
29,condition1,mustache-touting,man2_mustached_glassed,man,[0.16],1984,33,,[],45,Yes,n/a,2,1,Male,english,Firefox,Windows,1080,1920,3.4697666666666667,
29,condition1,black and white,picture_bw_rectangular,picture,[0.15],1854,34,,[],45,Yes,n/a,2,1,Male,english,Firefox,Windows,1080,1920,3.4697666666666667,
29,condition1,long,pencil_long_black,pencil,[0.13],2032,35,,[],45,Yes,n/a,2,1,Male,english,Firefox,Windows,1080,1920,3.4697666666666667,
29,condition1,glossy,nails_black_glossy,nails,[0.15],2224,36,,[],45,Yes,n/a,2,1,Male,english,Firefox,Windows,1080,1920,3.4697666666666667,
29,condition1,wet,shorts_wet_green,shorts,[0.17],1936,37,,[],45,Yes,n/a,2,1,Male,english,Firefox,Windows,1080,1920,3.4697666666666667,
29,condition1,big,bottle_glass_big,bottle,[0.35],2928,38,,[],45,Yes,n/a,2,1,Male,english,Firefox,Windows,1080,1920,3.4697666666666667,
29,condition1,rectangular,picture_bw_rectangular,picture,[0.2],1696,39,,[],45,Yes,n/a,2,1,Male,english,Firefox,Windows,1080,1920,3.4697666666666667,
29,condition1,striped,frog_striped_green,frog,[0.39],2399,40,,[],45,Yes,n/a,2,1,Male,english,Firefox,Windows,1080,1920,3.4697666666666667,
29,condition1,brown,hair_curly_brown,hair,[0.2],3215,41,,[],45,Yes,n/a,2,1,Male,english,Firefox,Windows,1080,1920,3.4697666666666667,
29,condition1,colored,picture_colored_rectangular,picture,[0.21],2215,42,,[],45,Yes,n/a,2,1,Male,english,Firefox,Windows,1080,1920,3.4697666666666667,
29,condition1,straight,hair_straight_blond,hair,[0.52],3743,43,,[],45,Yes,n/a,2,1,Male,english,Firefox,Windows,1080,1920,3.4697666666666667,
29,condition1,metal,spoon_metal_clean,spoon,[0.22],2576,44,,[],45,Yes,n/a,2,1,Male,english,Firefox,Windows,1080,1920,3.4697666666666667,
29,condition1,closed,box_closed_cardboard,box,[0.71],3479,45,,[],45,Yes,n/a,2,1,Male,english,Firefox,Windows,1080,1920,3.4697666666666667,
29,condition1,spotted,frog_spotted_green,frog,[0.3],2144,46,,[],45,Yes,n/a,2,1,Male,english,Firefox,Windows,1080,1920,3.4697666666666667,
29,condition1,square,picture_bw_square,picture,[0.15],2520,47,,[],45,Yes,n/a,2,1,Male,english,Firefox,Windows,1080,1920,3.4697666666666667,
29,condition1,black,nails_black_glossy,nails,[0.21],1983,48,,[],45,Yes,n/a,2,1,Male,english,Firefox,Windows,1080,1920,3.4697666666666667,
35,condition1,,,Jennifer,Jennifer,0,1,bot_check,[],20,Yes,,2,1,Male,English,Firefox,Windows,768,1360,2.6595833333333334,
35,condition1,open,box_open_cardboard,box,[0.07],5977,3,,[],20,Yes,,2,1,Male,English,Firefox,Windows,768,1360,2.6595833333333334,
35,condition1,colored,picture_colored_rectangular,picture,[0.42],5458,4,,[],20,Yes,,2,1,Male,English,Firefox,Windows,768,1360,2.6595833333333334,
35,condition1,square,picture_bw_square,picture,[0.55],3767,5,,[],20,Yes,,2,1,Male,English,Firefox,Windows,768,1360,2.6595833333333334,
35,condition1,skinny,woman2_happy_skinny,woman,[0.67],2870,6,,[],20,Yes,,2,1,Male,English,Firefox,Windows,768,1360,2.6595833333333334,
35,condition1,cardboard,box_closed_cardboard,box,[0.08],2765,7,,[],20,Yes,,2,1,Male,English,Firefox,Windows,768,1360,2.6595833333333334,
35,condition1,glass,bottle_glass_big,bottle,[0.04],2931,8,,[],20,Yes,,2,1,Male,English,Firefox,Windows,768,1360,2.6595833333333334,
35,condition1,short,pencil_short_black,pencil,[0.58],3089,9,,[],20,Yes,,2,1,Male,English,Firefox,Windows,768,1360,2.6595833333333334,
35,condition1,mustache-touting,man2_mustached_glassed,man,[0.06],2822,10,,[],20,Yes,,2,1,Male,English,Firefox,Windows,768,1360,2.6595833333333334,
35,condition1,spotted,frog_spotted_green,frog,[0.05],4792,11,,[],20,Yes,,2,1,Male,English,Firefox,Windows,768,1360,2.6595833333333334,
