workerid,proliferate.condition,adj1,adj2,label,left_end,left_end_tr,object,response,right_end,right_end_tr,rt,slide_number_in_experiment,trial_type,error
973,condition1,,,,,,beyaz,beyaz,,,0,1,bot_check,
973,condition1,wooden,clean,spoon_wooden_clean,"""wooden clean spoon""","""tahta temiz kaşık""",spoon,[0.94],"""clean wooden spoon""","""temiz tahta kaşık""",4775,3,,
973,condition1,straight,brown,hair_straight_brown,"""straight brown hair""","""düz kahverengi saç""",hair,[0.11],"""brown straight hair""","""kahverengi düz saç""",26607,4,,
973,condition1,wooden,dirty,spoon_wooden_dirty,"""dirty wooden spoon""","""kirli tahta kaşık""",spoon,[0.1],"""wooden dirty spoon""","""tahta kirli kaşık""",26177,5,,
973,condition1,red,matte,nails_red_matte,"""red matte nails""","""kırmızı mat oje""",nails,[0.9],"""matte red nails""","""mat kırmızı oje""",34454,6,,
973,condition1,black and white,square,picture_bw_square,"""black and white square picture""","""siyah beyaz kare resim""",picture,[0.13],"""square black and white picture""","""kare siyah beyaz resim""",11289,7,,
973,condition1,big,round,earring_big_round,"""big round earring""","""büyük yuvarlak küpe""",earring,[0.16],"""round big earring""","""yuvarlak büyük küpe""",32080,8,,
973,condition1,open,wooden,box_open_wood,"""open wooden box""","""açık tahta kutu""",box,[0.13],"""wooden open box""","""tahta açık kutu""",38320,9,,
973,condition1,black,matte,nails_black_matte,"""black matte nails""","""siyah mat oje""",nails,[0.9],"""matte black nails""","""mat siyah oje""",33321,10,,
973,condition1,curly,brown,hair_curly_brown,"""curly brown hair""","""kıvırcık kahverengi saç""",hair,[0.15],"""brown curly hair""","""kahverengi kıvırcık saç""",29032,11,,
973,condition1,young,bearded,man_young_bearded,"""bearded young man""","""sakallı genç adam""",man,[0.89],"""young bearded man""","""genç sakallı adam""",51503,12,,
973,condition1,open,cardboard,box_open_cardboard,"""open cardboard box""","""açık karton kutu""",box,[0],"""cardboard open box""","""karton açık kutu""",42989,13,,
973,condition1,colored,square,picture_colored_square,"""colored square picture""","""renkli kare resim""",picture,[0.91],"""square colored picture""","""kare renkli resim""",133630,14,,
973,condition1,closed,cardboard,box_closed_cardboard,"""closed cardboard box""","""kapalı karton kutu""",box,[0.06],"""cardboard closed box""","""karton kapalı kutu""",44304,15,,
973,condition1,glass,big,bottle_glass_big,"""glass big bottle""","""cam büyük şişe""",bottle,[0.89],"""big glass bottle""","""büyük cam şişe""",99587,16,,
973,condition1,young,sad,woman_young_sad,"""sad young woman""","""mutsuz genç kadın""",woman,[0.05],"""young sad woman""","""genç mutsuz kadın""",47526,17,,
973,condition1,glass,small,bottle_glass_small,"""small glass bottle""","""küçük cam şişe""",bottle,[0.94],"""glass small bottle""","""cam küçük şişe""",342193,18,,
973,condition1,happy,skinny,woman2_happy_skinny,"""happy skinny woman""","""mutlu zayıf kadın""",woman,[0.08],"""skinny happy woman""","""zayıf mutlu kadın""",54502,19,,
973,condition1,young,clean-shaven,man_young_cleanshaven,"""young clean-shaven man""","""genç sakalsız adam""",man,[0.95],"""clean-shaven young man""","""sakalsız genç adam""",34990,20,,
973,condition1,long,black,pencil_long_black,"""long black pencil""","""uzun siyah kalem""",pencil,[0.07],"""black long pencil""","""siyah uzun kalem""",7028,21,,
973,condition1,old,clean-shaven,man_old_cleanshaven,"""old clean-shaven man""","""yaşlı sakalsız adam""",man,[0.1],"""clean-shaven old man""","""sakalsız yaşlı adam""",2950,22,,
973,condition1,metal,low,table_metal_low,"""metal low table""","""metal alçak masa""",table,[0.92],"""low metal table""","""alçak metal masa""",2194,23,,
973,condition1,young,happy,woman_young_happy,"""happy young woman""","""mutlu genç kadın""",woman,[0.1],"""young happy woman""","""genç mutlu kadın""",1838,24,,
973,condition1,bearded,hat-wearing,man2_bearded_hatted,"""hat-wearing bearded man""","""şapkalı sakallı adam""",man,[0.07],"""bearded hat-wearing man""","""sakallı şapkalı adam""",2479,25,,
973,condition1,striped,red,frog_striped_red,"""striped red frog""","""çizgili kırmızı kurbağa""",frog,[0.95],"""red striped frog""","""kırmızı çizgili kurbağa""",2363,26,,
973,condition1,dry,green,shorts_dry_green,"""green dry shorts""","""yeşil kuru şort""",shorts,[0.91],"""dry green shorts""","""kuru yeşil şort""",2684,27,,
973,condition1,short,blue,pencil_short_blue,"""short blue pencil""","""kısa mavi kalem""",pencil,[0.07],"""blue short pencil""","""mavi kısa kalem""",2018,28,,
973,condition1,short,black,pencil_short_black,"""black short pencil""","""siyah kısa kalem""",pencil,[0.92],"""short black pencil""","""kısa siyah kalem""",1930,29,,
973,condition1,curly,blond,hair_curly_blonde,"""curly blond hair""","""kıvırcık sarı saç""",hair,[0.11],"""blond curly hair""","""sarı kıvırcık saç""",1714,30,,
973,condition1,old,bearded,man_old_bearded,"""old bearded man""","""yaşlı sakallı adam""",man,[0.07],"""bearded old man""","""sakallı yaşlı adam""",2054,31,,
973,condition1,black and white,rectangular,picture_bw_rectangular,"""black and white rectangular picture""","""siyah beyaz dikdörtgen resim""",picture,[0.08],"""rectangular black and white picture""","""dikdörtgen siyah beyaz resim""",3791,32,,
973,condition1,colored,rectangular,picture_colored_rectangular,"""colored rectangular picture""","""renkli dikdörtgen resim""",picture,[0.89],"""rectangular colored picture""","""dikdörtgen renkli resim""",2408,33,,
973,condition1,spotted,red,frog_spotted_red,"""spotted red frog""","""benekli kırmızı kurbağa""",frog,[0.92],"""red spotted frog""","""kırmızı benekli kurbağa""",2604,34,,
973,condition1,small,triangular,earring_small_triangular,"""small triangular earring""","""küçük üçgen küpe""",earring,[0.08],"""triangular small earring""","""üçgen küçük küpe""",2202,35,,
973,condition1,sad,fat,woman2_sad_fat,"""fat sad woman""","""şişman mutsuz kadın""",woman,[0.06],"""sad fat woman""","""mutsuz şişman kadın""",5072,36,,
973,condition1,plastic,small,bottle_plastic_small,"""small plastic bottle""","""küçük plastik şişe""",bottle,[0.06],"""plastic small bottle""","""plastik küçük şişe""",2580,37,,
973,condition1,sad,skinny,woman2_sad_skinny,"""skinny sad woman""","""zayıf mutsuz kadın""",woman,[0],"""sad skinny woman""","""mutsuz zayıf kadın""",4568,38,,
973,condition1,striped,green,frog_striped_green,"""green striped frog""","""yeşil çizgili kurbağa""",frog,[0.05],"""striped green frog""","""çizgili yeşil kurbağa""",2306,39,,
973,condition1,wet,red,shorts_wet_red,"""wet red shorts""","""ıslak kırmızı şort""",shorts,[0.94],"""red wet shorts""","""kırmızı ıslak şort""",2824,40,,
973,condition1,mustache-touting,glasses-wearing,man2_mustached_glassed,"""glasses-wearing mustache-touting man""","""gözlüklü bıyıklı adam""",man,[0.49],"""mustache-touting glasses-wearing man""","""bıyıklı gözlüklü adam""",6254,41,,
973,condition1,wooden,low,table_wood_low,"""low wooden table""","""alçak tahta masa""",table,[0.1],"""wooden low table""","""tahta alçak masa""",2592,42,,
973,condition1,mustache-touting,hat-wearing,man2_mustached_hatted,"""hat-wearing mustache-touting man""","""şapkalı bıyıklı adam""",man,[0.06],"""mustache-touting hat-wearing man""","""bıyıklı şapkalı adam""",2168,43,,
973,condition1,bearded,glasses-wearing,man2_bearded_glassed,"""glasses-wearing bearded man""","""gözlüklü sakallı adam""",man,[0.04],"""bearded glasses-wearing man""","""sakallı gözlüklü adam""",1980,44,,
973,condition1,long,blue,pencil_long_blue,"""blue long pencil""","""mavi uzun kalem""",pencil,[0.96],"""long blue pencil""","""uzun mavi kalem""",2188,45,,
973,condition1,wooden,high,table_wood_high,"""high wooden table""","""yüksek tahta masa""",table,[0.05],"""wooden high table""","""tahta yüksek masa""",1946,46,,
973,condition1,closed,wooden,box_closed_wood,"""closed wooden box""","""kapalı tahta kutu""",box,[0.02],"""wooden closed box""","""tahta kapalı kutu""",2298,47,,
973,condition1,straight,blond,hair_straight_blonde,"""blond straight hair""","""sarı düz saç""",hair,[0.95],"""straight blond hair""","""düz sarı saç""",2190,48,,
973,condition1,metal,high,table_metal_high,"""high metal table""","""yüksek metal masa""",table,[0.03],"""metal high table""","""metal yüksek masa""",2342,49,,
973,condition1,red,glossy,nails_red_glossy,"""red glossy nails""","""kırmızı parlak oje""",nails,[0.97],"""glossy red nails""","""parlak kırmızı oje""",3942,50,,
973,condition1,plastic,big,bottle_plastic_big,"""plastic big bottle""","""plastik büyük şişe""",bottle,[0.92],"""big plastic bottle""","""büyük plastik şişe""",2176,51,,
973,condition1,old,sad,woman_old_sad,"""old sad woman""","""yaşlı mutsuz kadın""",woman,[0.91],"""sad old woman""","""mutsuz yaşlı kadın""",1966,52,,
973,condition1,metal,clean,spoon_metal_clean,"""metal clean spoon""","""metal temiz kaşık""",spoon,[0.93],"""clean metal spoon""","""temiz metal kaşık""",2299,53,,
973,condition1,spotted,green,frog_spotted_green,"""green spotted frog""","""yeşil benekli kurbağa""",frog,[0.05],"""spotted green frog""","""benekli yeşil kurbağa""",2589,54,,
973,condition1,black,glossy,nails_black_glossy,"""black glossy nails""","""siyah parlak oje""",nails,[0.97],"""glossy black nails""","""parlak siyah oje""",3608,55,,
973,condition1,small,round,earring_small_round,"""round small earring""","""yuvarlak küçük küpe""",earring,[0.94],"""small round earring""","""küçük yuvarlak küpe""",2038,56,,
973,condition1,big,triangular,earring_big_triangular,"""big triangular earring""","""büyük üçgen küpe""",earring,[0.06],"""triangular big earring""","""üçgen büyük küpe""",2390,57,,
973,condition1,wet,green,shorts_wet_green,"""green wet shorts""","""yeşil ıslak şort""",shorts,[0.95],"""wet green shorts""","""ıslak yeşil şort""",2048,58,,
973,condition1,old,happy,woman_old_happy,"""happy old woman""","""mutlu yaşlı kadın""",woman,[0.04],"""old happy woman""","""yaşlı mutlu kadın""",3252,59,,
973,condition1,metal,dirty,spoon_metal_dirty,"""metal dirty spoon""","""metal kirli kaşık""",spoon,[0.49],"""dirty metal spoon""","""kirli metal kaşık""",3488,60,,
973,condition1,happy,fat,woman2_happy_fat,"""fat happy woman""","""şişman mutlu kadın""",woman,[0.95],"""happy fat woman""","""mutlu şişman kadın""",3302,61,,
973,condition1,dry,red,shorts_dry_red,"""dry red shorts""","""kuru kırmızı şort""",shorts,[0.04],"""red dry shorts""","""kırmızı kuru şort""",2988,62,,
968,condition1,,,,,,beyaz,Beyaz,,,0,1,bot_check,
968,condition1,spotted,green,frog_spotted_green,"""spotted green frog""","""benekli yeşil kurbağa""",frog,[0.96],"""green spotted frog""","""yeşil benekli kurbağa""",9521,3,,
968,condition1,wet,green,shorts_wet_green,"""wet green shorts""","""ıslak yeşil şort""",shorts,[0.02],"""green wet shorts""","""yeşil ıslak şort""",8776,4,,
968,condition1,short,blue,pencil_short_blue,"""blue short pencil""","""mavi kısa kalem""",pencil,[0.97],"""short blue pencil""","""kısa mavi kalem""",6207,5,,
968,condition1,short,black,pencil_short_black,"""short black pencil""","""kısa siyah kalem""",pencil,[0.01],"""black short pencil""","""siyah kısa kalem""",5030,6,,
968,condition1,bearded,hat-wearing,man2_bearded_hatted,"""hat-wearing bearded man""","""şapkalı sakallı adam""",man,[0.98],"""bearded hat-wearing man""","""sakallı şapkalı adam""",11126,7,,
968,condition1,dry,green,shorts_dry_green,"""green dry shorts""","""yeşil kuru şort""",shorts,[0.02],"""dry green shorts""","""kuru yeşil şort""",8492,8,,
968,condition1,metal,dirty,spoon_metal_dirty,"""metal dirty spoon""","""metal kirli kaşık""",spoon,[0.98],"""dirty metal spoon""","""kirli metal kaşık""",14842,9,,
968,condition1,small,triangular,earring_small_triangular,"""small triangular earring""","""küçük üçgen küpe""",earring,[0.03],"""triangular small earring""","""üçgen küçük küpe""",7675,10,,
968,condition1,bearded,glasses-wearing,man2_bearded_glassed,"""bearded glasses-wearing man""","""sakallı gözlüklü adam""",man,[0],"""glasses-wearing bearded man""","""gözlüklü sakallı adam""",6940,11,,
968,condition1,spotted,red,frog_spotted_red,"""spotted red frog""","""benekli kırmızı kurbağa""",frog,[0.97],"""red spotted frog""","""kırmızı benekli kurbağa""",5493,12,,
968,condition1,glass,big,bottle_glass_big,"""glass big bottle""","""cam büyük şişe""",bottle,[0.97],"""big glass bottle""","""büyük cam şişe""",6830,13,,
968,condition1,old,clean-shaven,man_old_cleanshaven,"""clean-shaven old man""","""sakalsız yaşlı adam""",man,[0.98],"""old clean-shaven man""","""yaşlı sakalsız adam""",8798,14,,
968,condition1,big,round,earring_big_round,"""big round earring""","""büyük yuvarlak küpe""",earring,[0.01],"""round big earring""","""yuvarlak büyük küpe""",9404,15,,
968,condition1,colored,square,picture_colored_square,"""colored square picture""","""renkli kare resim""",picture,[0.02],"""square colored picture""","""kare renkli resim""",6904,16,,
968,condition1,young,clean-shaven,man_young_cleanshaven,"""young clean-shaven man""","""genç sakalsız adam""",man,[0.99],"""clean-shaven young man""","""sakalsız genç adam""",4035,17,,
968,condition1,plastic,small,bottle_plastic_small,"""small plastic bottle""","""küçük plastik şişe""",bottle,[0.01],"""plastic small bottle""","""plastik küçük şişe""",7406,18,,
968,condition1,open,cardboard,box_open_cardboard,"""open cardboard box""","""açık karton kutu""",box,[0.03],"""cardboard open box""","""karton açık kutu""",5347,19,,
968,condition1,striped,red,frog_striped_red,"""red striped frog""","""kırmızı çizgili kurbağa""",frog,[0],"""striped red frog""","""çizgili kırmızı kurbağa""",5722,20,,
968,condition1,long,blue,pencil_long_blue,"""long blue pencil""","""uzun mavi kalem""",pencil,[0.04],"""blue long pencil""","""mavi uzun kalem""",5773,21,,
968,condition1,small,round,earring_small_round,"""round small earring""","""yuvarlak küçük küpe""",earring,[0.98],"""small round earring""","""küçük yuvarlak küpe""",4273,22,,
968,condition1,black,glossy,nails_black_glossy,"""black glossy nails""","""siyah parlak oje""",nails,[0.98],"""glossy black nails""","""parlak siyah oje""",13299,23,,
968,condition1,metal,low,table_metal_low,"""low metal table""","""alçak metal masa""",table,[0],"""metal low table""","""metal alçak masa""",7258,24,,
968,condition1,young,sad,woman_young_sad,"""young sad woman""","""genç mutsuz kadın""",woman,[0.97],"""sad young woman""","""mutsuz genç kadın""",8329,25,,
968,condition1,red,glossy,nails_red_glossy,"""glossy red nails""","""parlak kırmızı oje""",nails,[0.99],"""red glossy nails""","""kırmızı parlak oje""",7891,26,,
968,condition1,black,matte,nails_black_matte,"""matte black nails""","""mat siyah oje""",nails,[0.95],"""black matte nails""","""siyah mat oje""",5463,27,,
968,condition1,old,bearded,man_old_bearded,"""old bearded man""","""yaşlı sakallı adam""",man,[0.05],"""bearded old man""","""sakallı yaşlı adam""",15558,28,,
968,condition1,big,triangular,earring_big_triangular,"""big triangular earring""","""büyük üçgen küpe""",earring,[0.04],"""triangular big earring""","""üçgen büyük küpe""",5415,29,,
968,condition1,glass,small,bottle_glass_small,"""glass small bottle""","""cam küçük şişe""",bottle,[0.94],"""small glass bottle""","""küçük cam şişe""",4731,30,,
968,condition1,mustache-touting,hat-wearing,man2_mustached_hatted,"""hat-wearing mustache-touting man""","""şapkalı bıyıklı adam""",man,[0.98],"""mustache-touting hat-wearing man""","""bıyıklı şapkalı adam""",5472,31,,
968,condition1,old,sad,woman_old_sad,"""sad old woman""","""mutsuz yaşlı kadın""",woman,[0.95],"""old sad woman""","""yaşlı mutsuz kadın""",3638,32,,
968,condition1,plastic,big,bottle_plastic_big,"""plastic big bottle""","""plastik büyük şişe""",bottle,[0.95],"""big plastic bottle""","""büyük plastik şişe""",2948,33,,
968,condition1,sad,skinny,woman2_sad_skinny,"""sad skinny woman""","""mutsuz zayıf kadın""",woman,[0.96],"""skinny sad woman""","""zayıf mutsuz kadın""",3689,34,,
968,condition1,straight,brown,hair_straight_brown,"""brown straight hair""","""kahverengi düz saç""",hair,[0.98],"""straight brown hair""","""düz kahverengi saç""",4169,35,,
968,condition1,wooden,high,table_wood_high,"""wooden high table""","""tahta yüksek masa""",table,[0.96],"""high wooden table""","""yüksek tahta masa""",3811,36,,
968,condition1,happy,skinny,woman2_happy_skinny,"""happy skinny woman""","""mutlu zayıf kadın""",woman,[0.96],"""skinny happy woman""","""zayıf mutlu kadın""",4780,37,,
968,condition1,curly,blond,hair_curly_blonde,"""blond curly hair""","""sarı kıvırcık saç""",hair,[0.02],"""curly blond hair""","""kıvırcık sarı saç""",9306,38,,
968,condition1,colored,rectangular,picture_colored_rectangular,"""rectangular colored picture""","""dikdörtgen renkli resim""",picture,[0.96],"""colored rectangular picture""","""renkli dikdörtgen resim""",9535,39,,
968,condition1,metal,high,table_metal_high,"""high metal table""","""yüksek metal masa""",table,[0.02],"""metal high table""","""metal yüksek masa""",7871,40,,
968,condition1,striped,green,frog_striped_green,"""green striped frog""","""yeşil çizgili kurbağa""",frog,[0],"""striped green frog""","""çizgili yeşil kurbağa""",12649,41,,
968,condition1,sad,fat,woman2_sad_fat,"""fat sad woman""","""şişman mutsuz kadın""",woman,[0.98],"""sad fat woman""","""mutsuz şişman kadın""",18813,42,,
968,condition1,open,wooden,box_open_wood,"""wooden open box""","""tahta açık kutu""",box,[0.96],"""open wooden box""","""açık tahta kutu""",6509,43,,
968,condition1,mustache-touting,glasses-wearing,man2_mustached_glassed,"""glasses-wearing mustache-touting man""","""gözlüklü bıyıklı adam""",man,[0.98],"""mustache-touting glasses-wearing man""","""bıyıklı gözlüklü adam""",3465,44,,
968,condition1,straight,blond,hair_straight_blonde,"""blond straight hair""","""sarı düz saç""",hair,[0.97],"""straight blond hair""","""düz sarı saç""",3481,45,,
968,condition1,black and white,square,picture_bw_square,"""square black and white picture""","""kare siyah beyaz resim""",picture,[0.98],"""black and white square picture""","""siyah beyaz kare resim""",6302,46,,
968,condition1,curly,brown,hair_curly_brown,"""brown curly hair""","""kahverengi kıvırcık saç""",hair,[0.02],"""curly brown hair""","""kıvırcık kahverengi saç""",5909,47,,
968,condition1,closed,cardboard,box_closed_cardboard,"""cardboard closed box""","""karton kapalı kutu""",box,[0.98],"""closed cardboard box""","""kapalı karton kutu""",7148,48,,
968,condition1,long,black,pencil_long_black,"""black long pencil""","""siyah uzun kalem""",pencil,[0.99],"""long black pencil""","""uzun siyah kalem""",3092,49,,
968,condition1,young,happy,woman_young_happy,"""happy young woman""","""mutlu genç kadın""",woman,[0.97],"""young happy woman""","""genç mutlu kadın""",5675,50,,
968,condition1,red,matte,nails_red_matte,"""red matte nails""","""kırmızı mat oje""",nails,[0.98],"""matte red nails""","""mat kırmızı oje""",4795,51,,
968,condition1,young,bearded,man_young_bearded,"""young bearded man""","""genç sakallı adam""",man,[0.96],"""bearded young man""","""sakallı genç adam""",3117,52,,
968,condition1,dry,red,shorts_dry_red,"""red dry shorts""","""kırmızı kuru şort""",shorts,[0.97],"""dry red shorts""","""kuru kırmızı şort""",5497,53,,
968,condition1,wet,red,shorts_wet_red,"""red wet shorts""","""kırmızı ıslak şort""",shorts,[1],"""wet red shorts""","""ıslak kırmızı şort""",9112,54,,
968,condition1,happy,fat,woman2_happy_fat,"""happy fat woman""","""mutlu şişman kadın""",woman,[0.96],"""fat happy woman""","""şişman mutlu kadın""",14835,55,,
968,condition1,wooden,low,table_wood_low,"""wooden low table""","""tahta alçak masa""",table,[0.98],"""low wooden table""","""alçak tahta masa""",6872,56,,
968,condition1,black and white,rectangular,picture_bw_rectangular,"""black and white rectangular picture""","""siyah beyaz dikdörtgen resim""",picture,[0.98],"""rectangular black and white picture""","""dikdörtgen siyah beyaz resim""",5007,57,,
968,condition1,metal,clean,spoon_metal_clean,"""metal clean spoon""","""metal temiz kaşık""",spoon,[0.96],"""clean metal spoon""","""temiz metal kaşık""",5952,58,,
968,condition1,wooden,dirty,spoon_wooden_dirty,"""wooden dirty spoon""","""tahta kirli kaşık""",spoon,[0.98],"""dirty wooden spoon""","""kirli tahta kaşık""",5410,59,,
968,condition1,wooden,clean,spoon_wooden_clean,"""clean wooden spoon""","""temiz tahta kaşık""",spoon,[0.02],"""wooden clean spoon""","""tahta temiz kaşık""",4445,60,,
968,condition1,old,happy,woman_old_happy,"""old happy woman""","""yaşlı mutlu kadın""",woman,[0.97],"""happy old woman""","""mutlu yaşlı kadın""",3891,61,,
968,condition1,closed,wooden,box_closed_wood,"""closed wooden box""","""kapalı tahta kutu""",box,[0.01],"""wooden closed box""","""tahta kapalı kutu""",8216,62,,
971,condition1,,,,,,beyaz,beyaz,,,0,1,bot_check,
971,condition1,small,round,earring_small_round,"""small round earring""","""küçük yuvarlak küpe""",earring,[0.36],"""round small earring""","""yuvarlak küçük küpe""",20803,3,,
971,condition1,old,bearded,man_old_bearded,"""old bearded man""","""yaşlı sakallı adam""",man,[0.72],"""bearded old man""","""sakallı yaşlı adam""",17500,4,,
971,condition1,wooden,high,table_wood_high,"""wooden high table""","""tahta yüksek masa""",table,[0.85],"""high wooden table""","""yüksek tahta masa""",8594,5,,
971,condition1,closed,cardboard,box_closed_cardboard,"""cardboard closed box""","""karton kapalı kutu""",box,[0.98],"""closed cardboard box""","""kapalı karton kutu""",8841,6,,
971,condition1,straight,brown,hair_straight_brown,"""straight brown hair""","""düz kahverengi saç""",hair,[0.9],"""brown straight hair""","""kahverengi düz saç""",11716,7,,
971,condition1,bearded,hat-wearing,man2_bearded_hatted,"""bearded hat-wearing man""","""sakallı şapkalı adam""",man,[0.21],"""hat-wearing bearded man""","""şapkalı sakallı adam""",16153,8,,
971,condition1,sad,skinny,woman2_sad_skinny,"""skinny sad woman""","""zayıf mutsuz kadın""",woman,[0.85],"""sad skinny woman""","""mutsuz zayıf kadın""",5636,9,,
971,condition1,spotted,green,frog_spotted_green,"""spotted green frog""","""benekli yeşil kurbağa""",frog,[0.3],"""green spotted frog""","""yeşil benekli kurbağa""",9868,10,,
971,condition1,wooden,dirty,spoon_wooden_dirty,"""dirty wooden spoon""","""kirli tahta kaşık""",spoon,[0.01],"""wooden dirty spoon""","""tahta kirli kaşık""",9323,11,,
971,condition1,big,triangular,earring_big_triangular,"""triangular big earring""","""üçgen büyük küpe""",earring,[0.97],"""big triangular earring""","""büyük üçgen küpe""",11132,12,,
971,condition1,curly,brown,hair_curly_brown,"""brown curly hair""","""kahverengi kıvırcık saç""",hair,[0.99],"""curly brown hair""","""kıvırcık kahverengi saç""",8076,13,,
971,condition1,mustache-touting,hat-wearing,man2_mustached_hatted,"""hat-wearing mustache-touting man""","""şapkalı bıyıklı adam""",man,[0.27],"""mustache-touting hat-wearing man""","""bıyıklı şapkalı adam""",17168,14,,
971,condition1,open,wooden,box_open_wood,"""open wooden box""","""açık tahta kutu""",box,[0.02],"""wooden open box""","""tahta açık kutu""",5908,15,,
971,condition1,dry,green,shorts_dry_green,"""dry green shorts""","""kuru yeşil şort""",shorts,[0.04],"""green dry shorts""","""yeşil kuru şort""",6451,16,,
971,condition1,metal,high,table_metal_high,"""high metal table""","""yüksek metal masa""",table,[0.01],"""metal high table""","""metal yüksek masa""",44542,17,,
971,condition1,wooden,low,table_wood_low,"""low wooden table""","""alçak tahta masa""",table,[0],"""wooden low table""","""tahta alçak masa""",6114,18,,
971,condition1,happy,fat,woman2_happy_fat,"""fat happy woman""","""şişman mutlu kadın""",woman,[0.96],"""happy fat woman""","""mutlu şişman kadın""",12005,19,,
971,condition1,plastic,big,bottle_plastic_big,"""big plastic bottle""","""büyük plastik şişe""",bottle,[0.01],"""plastic big bottle""","""plastik büyük şişe""",6849,20,,
971,condition1,happy,skinny,woman2_happy_skinny,"""happy skinny woman""","""mutlu zayıf kadın""",woman,[0.01],"""skinny happy woman""","""zayıf mutlu kadın""",15900,21,,
971,condition1,glass,small,bottle_glass_small,"""glass small bottle""","""cam küçük şişe""",bottle,[0.98],"""small glass bottle""","""küçük cam şişe""",6943,22,,
971,condition1,striped,green,frog_striped_green,"""striped green frog""","""çizgili yeşil kurbağa""",frog,[0.99],"""green striped frog""","""yeşil çizgili kurbağa""",7985,23,,
971,condition1,black and white,rectangular,picture_bw_rectangular,"""black and white rectangular picture""","""siyah beyaz dikdörtgen resim""",picture,[0.99],"""rectangular black and white picture""","""dikdörtgen siyah beyaz resim""",24506,24,,
971,condition1,closed,wooden,box_closed_wood,"""closed wooden box""","""kapalı tahta kutu""",box,[0.03],"""wooden closed box""","""tahta kapalı kutu""",5309,25,,
971,condition1,young,sad,woman_young_sad,"""young sad woman""","""genç mutsuz kadın""",woman,[0.96],"""sad young woman""","""mutsuz genç kadın""",6365,26,,
971,condition1,old,sad,woman_old_sad,"""old sad woman""","""yaşlı mutsuz kadın""",woman,[0.98],"""sad old woman""","""mutsuz yaşlı kadın""",13347,27,,
971,condition1,old,happy,woman_old_happy,"""old happy woman""","""yaşlı mutlu kadın""",woman,[0.98],"""happy old woman""","""mutlu yaşlı kadın""",7144,28,,
971,condition1,short,blue,pencil_short_blue,"""blue short pencil""","""mavi kısa kalem""",pencil,[0.99],"""short blue pencil""","""kısa mavi kalem""",7491,29,,
971,condition1,long,black,pencil_long_black,"""long black pencil""","""uzun siyah kalem""",pencil,[0.02],"""black long pencil""","""siyah uzun kalem""",103860,30,,
971,condition1,black,glossy,nails_black_glossy,"""glossy black nails""","""parlak siyah oje""",nails,[0.04],"""black glossy nails""","""siyah parlak oje""",5856,31,,
971,condition1,curly,blond,hair_curly_blonde,"""blond curly hair""","""sarı kıvırcık saç""",hair,[0.96],"""curly blond hair""","""kıvırcık sarı saç""",4499,32,,
971,condition1,black,matte,nails_black_matte,"""black matte nails""","""siyah mat oje""",nails,[0.04],"""matte black nails""","""mat siyah oje""",4771,33,,
971,condition1,red,matte,nails_red_matte,"""matte red nails""","""mat kırmızı oje""",nails,[0.97],"""red matte nails""","""kırmızı mat oje""",5603,34,,
971,condition1,sad,fat,woman2_sad_fat,"""sad fat woman""","""mutsuz şişman kadın""",woman,[0.02],"""fat sad woman""","""şişman mutsuz kadın""",5297,35,,
971,condition1,metal,clean,spoon_metal_clean,"""clean metal spoon""","""temiz metal kaşık""",spoon,[0.01],"""metal clean spoon""","""metal temiz kaşık""",7595,36,,
971,condition1,straight,blond,hair_straight_blonde,"""blond straight hair""","""sarı düz saç""",hair,[0.97],"""straight blond hair""","""düz sarı saç""",10720,37,,
971,condition1,big,round,earring_big_round,"""big round earring""","""büyük yuvarlak küpe""",earring,[0.03],"""round big earring""","""yuvarlak büyük küpe""",16060,38,,
971,condition1,long,blue,pencil_long_blue,"""blue long pencil""","""mavi uzun kalem""",pencil,[0.02],"""long blue pencil""","""uzun mavi kalem""",45339,39,,
971,condition1,young,bearded,man_young_bearded,"""bearded young man""","""sakallı genç adam""",man,[0.97],"""young bearded man""","""genç sakallı adam""",7518,40,,
971,condition1,metal,dirty,spoon_metal_dirty,"""dirty metal spoon""","""kirli metal kaşık""",spoon,[0.02],"""metal dirty spoon""","""metal kirli kaşık""",5325,41,,
971,condition1,striped,red,frog_striped_red,"""red striped frog""","""kırmızı çizgili kurbağa""",frog,[0.02],"""striped red frog""","""çizgili kırmızı kurbağa""",4154,42,,
971,condition1,mustache-touting,glasses-wearing,man2_mustached_glassed,"""mustache-touting glasses-wearing man""","""bıyıklı gözlüklü adam""",man,[0.92],"""glasses-wearing mustache-touting man""","""gözlüklü bıyıklı adam""",7676,43,,
971,condition1,wooden,clean,spoon_wooden_clean,"""wooden clean spoon""","""tahta temiz kaşık""",spoon,[0.96],"""clean wooden spoon""","""temiz tahta kaşık""",4794,44,,
971,condition1,small,triangular,earring_small_triangular,"""triangular small earring""","""üçgen küçük küpe""",earring,[0.33],"""small triangular earring""","""küçük üçgen küpe""",12488,45,,
971,condition1,plastic,small,bottle_plastic_small,"""plastic small bottle""","""plastik küçük şişe""",bottle,[0.02],"""small plastic bottle""","""küçük plastik şişe""",9960,46,,
971,condition1,young,happy,woman_young_happy,"""young happy woman""","""genç mutlu kadın""",woman,[0.48],"""happy young woman""","""mutlu genç kadın""",125753,47,,
971,condition1,bearded,glasses-wearing,man2_bearded_glassed,"""glasses-wearing bearded man""","""gözlüklü sakallı adam""",man,[0.04],"""bearded glasses-wearing man""","""sakallı gözlüklü adam""",31240,48,,
971,condition1,glass,big,bottle_glass_big,"""glass big bottle""","""cam büyük şişe""",bottle,[0.95],"""big glass bottle""","""büyük cam şişe""",9972,49,,
971,condition1,red,glossy,nails_red_glossy,"""red glossy nails""","""kırmızı parlak oje""",nails,[0.03],"""glossy red nails""","""parlak kırmızı oje""",12036,50,,
971,condition1,spotted,red,frog_spotted_red,"""spotted red frog""","""benekli kırmızı kurbağa""",frog,[0.96],"""red spotted frog""","""kırmızı benekli kurbağa""",38119,51,,
971,condition1,wet,green,shorts_wet_green,"""wet green shorts""","""ıslak yeşil şort""",shorts,[0.03],"""green wet shorts""","""yeşil ıslak şort""",5534,52,,
971,condition1,open,cardboard,box_open_cardboard,"""cardboard open box""","""karton açık kutu""",box,[0.99],"""open cardboard box""","""açık karton kutu""",4858,53,,
971,condition1,black and white,square,picture_bw_square,"""black and white square picture""","""siyah beyaz kare resim""",picture,[0.04],"""square black and white picture""","""kare siyah beyaz resim""",10541,54,,
971,condition1,old,clean-shaven,man_old_cleanshaven,"""old clean-shaven man""","""yaşlı sakalsız adam""",man,[0.98],"""clean-shaven old man""","""sakalsız yaşlı adam""",5996,55,,
971,condition1,colored,rectangular,picture_colored_rectangular,"""rectangular colored picture""","""dikdörtgen renkli resim""",picture,[0.06],"""colored rectangular picture""","""renkli dikdörtgen resim""",10789,56,,
971,condition1,wet,red,shorts_wet_red,"""red wet shorts""","""kırmızı ıslak şort""",shorts,[0.81],"""wet red shorts""","""ıslak kırmızı şort""",6436,57,,
971,condition1,metal,low,table_metal_low,"""low metal table""","""alçak metal masa""",table,[0.5],"""metal low table""","""metal alçak masa""",7912,58,,
971,condition1,dry,red,shorts_dry_red,"""dry red shorts""","""kuru kırmızı şort""",shorts,[0.97],"""red dry shorts""","""kırmızı kuru şort""",7908,59,,
971,condition1,short,black,pencil_short_black,"""black short pencil""","""siyah kısa kalem""",pencil,[0.02],"""short black pencil""","""kısa siyah kalem""",21947,60,,
971,condition1,young,clean-shaven,man_young_cleanshaven,"""clean-shaven young man""","""sakalsız genç adam""",man,[0.31],"""young clean-shaven man""","""genç sakalsız adam""",5755,61,,
971,condition1,colored,square,picture_colored_square,"""colored square picture""","""renkli kare resim""",picture,[0.17],"""square colored picture""","""kare renkli resim""",3693,62,,
936,condition1,,,,,,beyaz,beyaz,,,0,1,bot_check,
936,condition1,wet,red,shorts_wet_red,"""red wet shorts""","""kırmızı ıslak şort""",shorts,[0.74],"""wet red shorts""","""ıslak kırmızı şort""",9675,3,,
936,condition1,bearded,hat-wearing,man2_bearded_hatted,"""bearded hat-wearing man""","""sakallı şapkalı adam""",man,[0.64],"""hat-wearing bearded man""","""şapkalı sakallı adam""",5736,4,,
936,condition1,spotted,green,frog_spotted_green,"""spotted green frog""","""benekli yeşil kurbağa""",frog,[0.48],"""green spotted frog""","""yeşil benekli kurbağa""",1834,5,,
936,condition1,happy,skinny,woman2_happy_skinny,"""skinny happy woman""","""zayıf mutlu kadın""",woman,[0.57],"""happy skinny woman""","""mutlu zayıf kadın""",1535,6,,
936,condition1,red,glossy,nails_red_glossy,"""red glossy nails""","""kırmızı parlak oje""",nails,[0.42],"""glossy red nails""","""parlak kırmızı oje""",1355,7,,
936,condition1,old,happy,woman_old_happy,"""old happy woman""","""yaşlı mutlu kadın""",woman,[0.53],"""happy old woman""","""mutlu yaşlı kadın""",1395,8,,
936,condition1,wooden,high,table_wood_high,"""high wooden table""","""yüksek tahta masa""",table,[0.43],"""wooden high table""","""tahta yüksek masa""",1439,9,,
936,condition1,colored,square,picture_colored_square,"""square colored picture""","""kare renkli resim""",picture,[0.47],"""colored square picture""","""renkli kare resim""",2417,10,,
936,condition1,glass,small,bottle_glass_small,"""small glass bottle""","""küçük cam şişe""",bottle,[0.51],"""glass small bottle""","""cam küçük şişe""",3150,11,,
936,condition1,straight,blond,hair_straight_blonde,"""straight blond hair""","""düz sarı saç""",hair,[0.42],"""blond straight hair""","""sarı düz saç""",2121,12,,
936,condition1,closed,wooden,box_closed_wood,"""wooden closed box""","""tahta kapalı kutu""",box,[0.51],"""closed wooden box""","""kapalı tahta kutu""",1318,13,,
936,condition1,metal,low,table_metal_low,"""metal low table""","""metal alçak masa""",table,[0.5],"""low metal table""","""alçak metal masa""",1446,14,,
936,condition1,black and white,rectangular,picture_bw_rectangular,"""rectangular black and white picture""","""dikdörtgen siyah beyaz resim""",picture,[0.58],"""black and white rectangular picture""","""siyah beyaz dikdörtgen resim""",1219,15,,
936,condition1,dry,green,shorts_dry_green,"""dry green shorts""","""kuru yeşil şort""",shorts,[0.49],"""green dry shorts""","""yeşil kuru şort""",1386,16,,
936,condition1,sad,fat,woman2_sad_fat,"""sad fat woman""","""mutsuz şişman kadın""",woman,[0.61],"""fat sad woman""","""şişman mutsuz kadın""",4390,17,,
936,condition1,long,blue,pencil_long_blue,"""blue long pencil""","""mavi uzun kalem""",pencil,[0.63],"""long blue pencil""","""uzun mavi kalem""",1732,18,,
936,condition1,closed,cardboard,box_closed_cardboard,"""cardboard closed box""","""karton kapalı kutu""",box,[0.58],"""closed cardboard box""","""kapalı karton kutu""",1238,19,,
936,condition1,wet,green,shorts_wet_green,"""wet green shorts""","""ıslak yeşil şort""",shorts,[0.54],"""green wet shorts""","""yeşil ıslak şort""",2177,20,,
936,condition1,mustache-touting,hat-wearing,man2_mustached_hatted,"""hat-wearing mustache-touting man""","""şapkalı bıyıklı adam""",man,[0.45],"""mustache-touting hat-wearing man""","""bıyıklı şapkalı adam""",2538,21,,
936,condition1,striped,green,frog_striped_green,"""striped green frog""","""çizgili yeşil kurbağa""",frog,[0.5],"""green striped frog""","""yeşil çizgili kurbağa""",1614,22,,
936,condition1,young,sad,woman_young_sad,"""sad young woman""","""mutsuz genç kadın""",woman,[0.46],"""young sad woman""","""genç mutsuz kadın""",3361,23,,
936,condition1,curly,blond,hair_curly_blonde,"""blond curly hair""","""sarı kıvırcık saç""",hair,[0.56],"""curly blond hair""","""kıvırcık sarı saç""",1266,24,,
936,condition1,sad,skinny,woman2_sad_skinny,"""skinny sad woman""","""zayıf mutsuz kadın""",woman,[0.43],"""sad skinny woman""","""mutsuz zayıf kadın""",1963,25,,
936,condition1,old,sad,woman_old_sad,"""old sad woman""","""yaşlı mutsuz kadın""",woman,[0.53],"""sad old woman""","""mutsuz yaşlı kadın""",1307,26,,
936,condition1,wooden,clean,spoon_wooden_clean,"""clean wooden spoon""","""temiz tahta kaşık""",spoon,[0.46],"""wooden clean spoon""","""tahta temiz kaşık""",1506,27,,
936,condition1,big,round,earring_big_round,"""round big earring""","""yuvarlak büyük küpe""",earring,[0.59],"""big round earring""","""büyük yuvarlak küpe""",2172,28,,
936,condition1,small,round,earring_small_round,"""small round earring""","""küçük yuvarlak küpe""",earring,[0.52],"""round small earring""","""yuvarlak küçük küpe""",3356,29,,
936,condition1,black,glossy,nails_black_glossy,"""glossy black nails""","""parlak siyah oje""",nails,[0.38],"""black glossy nails""","""siyah parlak oje""",1605,30,,
936,condition1,plastic,small,bottle_plastic_small,"""small plastic bottle""","""küçük plastik şişe""",bottle,[0.6],"""plastic small bottle""","""plastik küçük şişe""",1278,31,,
936,condition1,old,clean-shaven,man_old_cleanshaven,"""old clean-shaven man""","""yaşlı sakalsız adam""",man,[0.39],"""clean-shaven old man""","""sakalsız yaşlı adam""",2029,32,,
936,condition1,wooden,dirty,spoon_wooden_dirty,"""wooden dirty spoon""","""tahta kirli kaşık""",spoon,[0.54],"""dirty wooden spoon""","""kirli tahta kaşık""",1121,33,,
936,condition1,young,clean-shaven,man_young_cleanshaven,"""young clean-shaven man""","""genç sakalsız adam""",man,[0.51],"""clean-shaven young man""","""sakalsız genç adam""",1268,34,,
936,condition1,wooden,low,table_wood_low,"""wooden low table""","""tahta alçak masa""",table,[0.51],"""low wooden table""","""alçak tahta masa""",1992,35,,
936,condition1,metal,clean,spoon_metal_clean,"""clean metal spoon""","""temiz metal kaşık""",spoon,[0.64],"""metal clean spoon""","""metal temiz kaşık""",2624,36,,
936,condition1,colored,rectangular,picture_colored_rectangular,"""colored rectangular picture""","""renkli dikdörtgen resim""",picture,[0.42],"""rectangular colored picture""","""dikdörtgen renkli resim""",1338,37,,
936,condition1,big,triangular,earring_big_triangular,"""triangular big earring""","""üçgen büyük küpe""",earring,[0.5],"""big triangular earring""","""büyük üçgen küpe""",1515,38,,
936,condition1,bearded,glasses-wearing,man2_bearded_glassed,"""glasses-wearing bearded man""","""gözlüklü sakallı adam""",man,[0.53],"""bearded glasses-wearing man""","""sakallı gözlüklü adam""",1307,39,,
936,condition1,metal,high,table_metal_high,"""high metal table""","""yüksek metal masa""",table,[0.44],"""metal high table""","""metal yüksek masa""",1249,40,,
936,condition1,striped,red,frog_striped_red,"""striped red frog""","""çizgili kırmızı kurbağa""",frog,[0.52],"""red striped frog""","""kırmızı çizgili kurbağa""",1218,41,,
936,condition1,glass,big,bottle_glass_big,"""glass big bottle""","""cam büyük şişe""",bottle,[0.49],"""big glass bottle""","""büyük cam şişe""",2090,42,,
936,condition1,plastic,big,bottle_plastic_big,"""plastic big bottle""","""plastik büyük şişe""",bottle,[0.63],"""big plastic bottle""","""büyük plastik şişe""",3093,43,,
936,condition1,mustache-touting,glasses-wearing,man2_mustached_glassed,"""glasses-wearing mustache-touting man""","""gözlüklü bıyıklı adam""",man,[0.63],"""mustache-touting glasses-wearing man""","""bıyıklı gözlüklü adam""",1881,44,,
936,condition1,long,black,pencil_long_black,"""long black pencil""","""uzun siyah kalem""",pencil,[0.47],"""black long pencil""","""siyah uzun kalem""",2498,45,,
936,condition1,curly,brown,hair_curly_brown,"""brown curly hair""","""kahverengi kıvırcık saç""",hair,[0.22],"""curly brown hair""","""kıvırcık kahverengi saç""",3308,46,,
936,condition1,straight,brown,hair_straight_brown,"""straight brown hair""","""düz kahverengi saç""",hair,[0.57],"""brown straight hair""","""kahverengi düz saç""",3499,47,,
936,condition1,small,triangular,earring_small_triangular,"""triangular small earring""","""üçgen küçük küpe""",earring,[0.61],"""small triangular earring""","""küçük üçgen küpe""",1495,48,,
936,condition1,spotted,red,frog_spotted_red,"""spotted red frog""","""benekli kırmızı kurbağa""",frog,[0.51],"""red spotted frog""","""kırmızı benekli kurbağa""",1911,49,,
936,condition1,dry,red,shorts_dry_red,"""dry red shorts""","""kuru kırmızı şort""",shorts,[0.34],"""red dry shorts""","""kırmızı kuru şort""",3240,50,,
936,condition1,red,matte,nails_red_matte,"""red matte nails""","""kırmızı mat oje""",nails,[0.58],"""matte red nails""","""mat kırmızı oje""",3379,51,,
936,condition1,black and white,square,picture_bw_square,"""square black and white picture""","""kare siyah beyaz resim""",picture,[0.55],"""black and white square picture""","""siyah beyaz kare resim""",2070,52,,
936,condition1,short,black,pencil_short_black,"""black short pencil""","""siyah kısa kalem""",pencil,[0.44],"""short black pencil""","""kısa siyah kalem""",1209,53,,
936,condition1,happy,fat,woman2_happy_fat,"""fat happy woman""","""şişman mutlu kadın""",woman,[0.61],"""happy fat woman""","""mutlu şişman kadın""",1636,54,,
936,condition1,open,cardboard,box_open_cardboard,"""open cardboard box""","""açık karton kutu""",box,[0.43],"""cardboard open box""","""karton açık kutu""",1534,55,,
936,condition1,open,wooden,box_open_wood,"""open wooden box""","""açık tahta kutu""",box,[0.6],"""wooden open box""","""tahta açık kutu""",1842,56,,
936,condition1,black,matte,nails_black_matte,"""matte black nails""","""mat siyah oje""",nails,[0.57],"""black matte nails""","""siyah mat oje""",3366,57,,
936,condition1,young,happy,woman_young_happy,"""young happy woman""","""genç mutlu kadın""",woman,[0.68],"""happy young woman""","""mutlu genç kadın""",1306,58,,
936,condition1,young,bearded,man_young_bearded,"""bearded young man""","""sakallı genç adam""",man,[0.51],"""young bearded man""","""genç sakallı adam""",1260,59,,
936,condition1,old,bearded,man_old_bearded,"""old bearded man""","""yaşlı sakallı adam""",man,[0.53],"""bearded old man""","""sakallı yaşlı adam""",4210,60,,
936,condition1,short,blue,pencil_short_blue,"""short blue pencil""","""kısa mavi kalem""",pencil,[0.42],"""blue short pencil""","""mavi kısa kalem""",1594,61,,
936,condition1,metal,dirty,spoon_metal_dirty,"""dirty metal spoon""","""kirli metal kaşık""",spoon,[0.52],"""metal dirty spoon""","""metal kirli kaşık""",1436,62,,
955,condition1,,,,,,beyaz,Beyaz,,,0,1,bot_check,
955,condition1,plastic,big,bottle_plastic_big,"""big plastic bottle""","""büyük plastik şişe""",bottle,[0.19],"""plastic big bottle""","""plastik büyük şişe""",4157,3,,
955,condition1,wet,red,shorts_wet_red,"""wet red shorts""","""ıslak kırmızı şort""",shorts,[0.87],"""red wet shorts""","""kırmızı ıslak şort""",3539,4,,
955,condition1,young,sad,woman_young_sad,"""young sad woman""","""genç mutsuz kadın""",woman,[0.79],"""sad young woman""","""mutsuz genç kadın""",4034,5,,
955,condition1,straight,blond,hair_straight_blonde,"""blond straight hair""","""sarı düz saç""",hair,[0.74],"""straight blond hair""","""düz sarı saç""",2454,6,,
955,condition1,glass,small,bottle_glass_small,"""glass small bottle""","""cam küçük şişe""",bottle,[0.82],"""small glass bottle""","""küçük cam şişe""",2707,7,,
955,condition1,young,bearded,man_young_bearded,"""young bearded man""","""genç sakallı adam""",man,[0.8],"""bearded young man""","""sakallı genç adam""",2185,8,,
955,condition1,curly,blond,hair_curly_blonde,"""blond curly hair""","""sarı kıvırcık saç""",hair,[0.16],"""curly blond hair""","""kıvırcık sarı saç""",3290,9,,
955,condition1,long,black,pencil_long_black,"""long black pencil""","""uzun siyah kalem""",pencil,[0.79],"""black long pencil""","""siyah uzun kalem""",3237,10,,
955,condition1,straight,brown,hair_straight_brown,"""brown straight hair""","""kahverengi düz saç""",hair,[0.14],"""straight brown hair""","""düz kahverengi saç""",4230,11,,
955,condition1,glass,big,bottle_glass_big,"""big glass bottle""","""büyük cam şişe""",bottle,[0.1],"""glass big bottle""","""cam büyük şişe""",5953,12,,
955,condition1,closed,wooden,box_closed_wood,"""wooden closed box""","""tahta kapalı kutu""",box,[0.11],"""closed wooden box""","""kapalı tahta kutu""",3764,13,,
955,condition1,black,matte,nails_black_matte,"""matte black nails""","""mat siyah oje""",nails,[0.16],"""black matte nails""","""siyah mat oje""",4403,14,,
955,condition1,old,sad,woman_old_sad,"""old sad woman""","""yaşlı mutsuz kadın""",woman,[0.83],"""sad old woman""","""mutsuz yaşlı kadın""",3229,15,,
955,condition1,plastic,small,bottle_plastic_small,"""small plastic bottle""","""küçük plastik şişe""",bottle,[0.77],"""plastic small bottle""","""plastik küçük şişe""",2542,16,,
955,condition1,sad,skinny,woman2_sad_skinny,"""sad skinny woman""","""mutsuz zayıf kadın""",woman,[0.07],"""skinny sad woman""","""zayıf mutsuz kadın""",3468,17,,
955,condition1,old,bearded,man_old_bearded,"""bearded old man""","""sakallı yaşlı adam""",man,[0.06],"""old bearded man""","""yaşlı sakallı adam""",2642,18,,
955,condition1,striped,red,frog_striped_red,"""striped red frog""","""çizgili kırmızı kurbağa""",frog,[0.87],"""red striped frog""","""kırmızı çizgili kurbağa""",3322,19,,
955,condition1,short,blue,pencil_short_blue,"""blue short pencil""","""mavi kısa kalem""",pencil,[0.11],"""short blue pencil""","""kısa mavi kalem""",2233,20,,
955,condition1,red,matte,nails_red_matte,"""red matte nails""","""kırmızı mat oje""",nails,[0.78],"""matte red nails""","""mat kırmızı oje""",2784,21,,
955,condition1,small,round,earring_small_round,"""round small earring""","""yuvarlak küçük küpe""",earring,[0.17],"""small round earring""","""küçük yuvarlak küpe""",4287,22,,
955,condition1,sad,fat,woman2_sad_fat,"""sad fat woman""","""mutsuz şişman kadın""",woman,[0.08],"""fat sad woman""","""şişman mutsuz kadın""",5370,23,,
955,condition1,mustache-touting,hat-wearing,man2_mustached_hatted,"""hat-wearing mustache-touting man""","""şapkalı bıyıklı adam""",man,[0.92],"""mustache-touting hat-wearing man""","""bıyıklı şapkalı adam""",2800,24,,
955,condition1,spotted,red,frog_spotted_red,"""red spotted frog""","""kırmızı benekli kurbağa""",frog,[0.11],"""spotted red frog""","""benekli kırmızı kurbağa""",2981,25,,
955,condition1,striped,green,frog_striped_green,"""green striped frog""","""yeşil çizgili kurbağa""",frog,[0.84],"""striped green frog""","""çizgili yeşil kurbağa""",2527,26,,
955,condition1,old,happy,woman_old_happy,"""old happy woman""","""yaşlı mutlu kadın""",woman,[0.8],"""happy old woman""","""mutlu yaşlı kadın""",3631,27,,
955,condition1,bearded,glasses-wearing,man2_bearded_glassed,"""glasses-wearing bearded man""","""gözlüklü sakallı adam""",man,[0.86],"""bearded glasses-wearing man""","""sakallı gözlüklü adam""",5972,28,,
955,condition1,old,clean-shaven,man_old_cleanshaven,"""old clean-shaven man""","""yaşlı sakalsız adam""",man,[0.86],"""clean-shaven old man""","""sakalsız yaşlı adam""",3459,29,,
955,condition1,black and white,rectangular,picture_bw_rectangular,"""rectangular black and white picture""","""dikdörtgen siyah beyaz resim""",picture,[0.71],"""black and white rectangular picture""","""siyah beyaz dikdörtgen resim""",4245,30,,
955,condition1,dry,green,shorts_dry_green,"""dry green shorts""","""kuru yeşil şort""",shorts,[0.15],"""green dry shorts""","""yeşil kuru şort""",3390,31,,
955,condition1,black and white,square,picture_bw_square,"""black and white square picture""","""siyah beyaz kare resim""",picture,[0.06],"""square black and white picture""","""kare siyah beyaz resim""",3546,32,,
955,condition1,big,round,earring_big_round,"""big round earring""","""büyük yuvarlak küpe""",earring,[0.09],"""round big earring""","""yuvarlak büyük küpe""",5444,33,,
955,condition1,wooden,low,table_wood_low,"""wooden low table""","""tahta alçak masa""",table,[0.8],"""low wooden table""","""alçak tahta masa""",2237,34,,
955,condition1,long,blue,pencil_long_blue,"""blue long pencil""","""mavi uzun kalem""",pencil,[0.82],"""long blue pencil""","""uzun mavi kalem""",3574,35,,
955,condition1,wooden,clean,spoon_wooden_clean,"""wooden clean spoon""","""tahta temiz kaşık""",spoon,[0.71],"""clean wooden spoon""","""temiz tahta kaşık""",3249,36,,
955,condition1,metal,clean,spoon_metal_clean,"""metal clean spoon""","""metal temiz kaşık""",spoon,[0.93],"""clean metal spoon""","""temiz metal kaşık""",3896,37,,
955,condition1,metal,high,table_metal_high,"""high metal table""","""yüksek metal masa""",table,[0.12],"""metal high table""","""metal yüksek masa""",3695,38,,
955,condition1,dry,red,shorts_dry_red,"""dry red shorts""","""kuru kırmızı şort""",shorts,[0.85],"""red dry shorts""","""kırmızı kuru şort""",2358,39,,
955,condition1,curly,brown,hair_curly_brown,"""curly brown hair""","""kıvırcık kahverengi saç""",hair,[0.96],"""brown curly hair""","""kahverengi kıvırcık saç""",3085,40,,
955,condition1,open,cardboard,box_open_cardboard,"""open cardboard box""","""açık karton kutu""",box,[0.03],"""cardboard open box""","""karton açık kutu""",4342,41,,
955,condition1,open,wooden,box_open_wood,"""wooden open box""","""tahta açık kutu""",box,[0.87],"""open wooden box""","""açık tahta kutu""",3346,42,,
955,condition1,small,triangular,earring_small_triangular,"""triangular small earring""","""üçgen küçük küpe""",earring,[0.81],"""small triangular earring""","""küçük üçgen küpe""",2273,43,,
955,condition1,black,glossy,nails_black_glossy,"""black glossy nails""","""siyah parlak oje""",nails,[0.2],"""glossy black nails""","""parlak siyah oje""",4608,44,,
955,condition1,mustache-touting,glasses-wearing,man2_mustached_glassed,"""mustache-touting glasses-wearing man""","""bıyıklı gözlüklü adam""",man,[0.91],"""glasses-wearing mustache-touting man""","""gözlüklü bıyıklı adam""",2960,45,,
955,condition1,metal,dirty,spoon_metal_dirty,"""dirty metal spoon""","""kirli metal kaşık""",spoon,[0.76],"""metal dirty spoon""","""metal kirli kaşık""",2998,46,,
955,condition1,bearded,hat-wearing,man2_bearded_hatted,"""bearded hat-wearing man""","""sakallı şapkalı adam""",man,[0.89],"""hat-wearing bearded man""","""şapkalı sakallı adam""",3714,47,,
955,condition1,young,happy,woman_young_happy,"""young happy woman""","""genç mutlu kadın""",woman,[0.09],"""happy young woman""","""mutlu genç kadın""",3536,48,,
955,condition1,short,black,pencil_short_black,"""black short pencil""","""siyah kısa kalem""",pencil,[0.9],"""short black pencil""","""kısa siyah kalem""",3417,49,,
955,condition1,young,clean-shaven,man_young_cleanshaven,"""clean-shaven young man""","""sakalsız genç adam""",man,[0.04],"""young clean-shaven man""","""genç sakalsız adam""",2579,50,,
955,condition1,metal,low,table_metal_low,"""metal low table""","""metal alçak masa""",table,[0.78],"""low metal table""","""alçak metal masa""",2101,51,,
955,condition1,colored,rectangular,picture_colored_rectangular,"""rectangular colored picture""","""dikdörtgen renkli resim""",picture,[0.1],"""colored rectangular picture""","""renkli dikdörtgen resim""",5905,52,,
955,condition1,red,glossy,nails_red_glossy,"""glossy red nails""","""parlak kırmızı oje""",nails,[0.04],"""red glossy nails""","""kırmızı parlak oje""",2133,53,,
955,condition1,wet,green,shorts_wet_green,"""wet green shorts""","""ıslak yeşil şort""",shorts,[0.74],"""green wet shorts""","""yeşil ıslak şort""",2161,54,,
955,condition1,big,triangular,earring_big_triangular,"""triangular big earring""","""üçgen büyük küpe""",earring,[0.82],"""big triangular earring""","""büyük üçgen küpe""",1985,55,,
955,condition1,wooden,high,table_wood_high,"""high wooden table""","""yüksek tahta masa""",table,[0.93],"""wooden high table""","""tahta yüksek masa""",3784,56,,
955,condition1,wooden,dirty,spoon_wooden_dirty,"""wooden dirty spoon""","""tahta kirli kaşık""",spoon,[0.82],"""dirty wooden spoon""","""kirli tahta kaşık""",2816,57,,
955,condition1,happy,skinny,woman2_happy_skinny,"""skinny happy woman""","""zayıf mutlu kadın""",woman,[0.92],"""happy skinny woman""","""mutlu zayıf kadın""",1992,58,,
955,condition1,happy,fat,woman2_happy_fat,"""fat happy woman""","""şişman mutlu kadın""",woman,[0.78],"""happy fat woman""","""mutlu şişman kadın""",2430,59,,
955,condition1,colored,square,picture_colored_square,"""square colored picture""","""kare renkli resim""",picture,[0.78],"""colored square picture""","""renkli kare resim""",1985,60,,
955,condition1,spotted,green,frog_spotted_green,"""spotted green frog""","""benekli yeşil kurbağa""",frog,[0.87],"""green spotted frog""","""yeşil benekli kurbağa""",1976,61,,
955,condition1,closed,cardboard,box_closed_cardboard,"""closed cardboard box""","""kapalı karton kutu""",box,[0.86],"""cardboard closed box""","""karton kapalı kutu""",2193,62,,
951,condition1,,,,,,beyaz,beyaz,,,0,1,bot_check,
951,condition1,wooden,clean,spoon_wooden_clean,"""wooden clean spoon""","""tahta temiz kaşık""",spoon,[0.98],"""clean wooden spoon""","""temiz tahta kaşık""",9524,3,,
951,condition1,metal,high,table_metal_high,"""metal high table""","""metal yüksek masa""",table,[0.99],"""high metal table""","""yüksek metal masa""",7235,4,,
951,condition1,wooden,low,table_wood_low,"""low wooden table""","""alçak tahta masa""",table,[0.01],"""wooden low table""","""tahta alçak masa""",4625,5,,
951,condition1,dry,green,shorts_dry_green,"""dry green shorts""","""kuru yeşil şort""",shorts,[0.02],"""green dry shorts""","""yeşil kuru şort""",13741,6,,
951,condition1,curly,blond,hair_curly_blonde,"""blond curly hair""","""sarı kıvırcık saç""",hair,[0.97],"""curly blond hair""","""kıvırcık sarı saç""",7110,7,,
951,condition1,long,black,pencil_long_black,"""black long pencil""","""siyah uzun kalem""",pencil,[0.98],"""long black pencil""","""uzun siyah kalem""",4108,8,,
951,condition1,young,bearded,man_young_bearded,"""young bearded man""","""genç sakallı adam""",man,[0.98],"""bearded young man""","""sakallı genç adam""",5450,9,,
951,condition1,big,triangular,earring_big_triangular,"""triangular big earring""","""üçgen büyük küpe""",earring,[0.98],"""big triangular earring""","""büyük üçgen küpe""",6374,10,,
951,condition1,old,clean-shaven,man_old_cleanshaven,"""clean-shaven old man""","""sakalsız yaşlı adam""",man,[0],"""old clean-shaven man""","""yaşlı sakalsız adam""",8822,11,,
951,condition1,short,black,pencil_short_black,"""short black pencil""","""kısa siyah kalem""",pencil,[0.97],"""black short pencil""","""siyah kısa kalem""",8857,12,,
951,condition1,bearded,hat-wearing,man2_bearded_hatted,"""bearded hat-wearing man""","""sakallı şapkalı adam""",man,[0.97],"""hat-wearing bearded man""","""şapkalı sakallı adam""",6033,13,,
951,condition1,bearded,glasses-wearing,man2_bearded_glassed,"""glasses-wearing bearded man""","""gözlüklü sakallı adam""",man,[0.99],"""bearded glasses-wearing man""","""sakallı gözlüklü adam""",19258,14,,
951,condition1,metal,clean,spoon_metal_clean,"""metal clean spoon""","""metal temiz kaşık""",spoon,[0.98],"""clean metal spoon""","""temiz metal kaşık""",5148,15,,
951,condition1,closed,wooden,box_closed_wood,"""wooden closed box""","""tahta kapalı kutu""",box,[0.99],"""closed wooden box""","""kapalı tahta kutu""",8484,16,,
951,condition1,sad,skinny,woman2_sad_skinny,"""skinny sad woman""","""zayıf mutsuz kadın""",woman,[0.97],"""sad skinny woman""","""mutsuz zayıf kadın""",7432,17,,
951,condition1,colored,rectangular,picture_colored_rectangular,"""rectangular colored picture""","""dikdörtgen renkli resim""",picture,[0.98],"""colored rectangular picture""","""renkli dikdörtgen resim""",5467,18,,
951,condition1,straight,blond,hair_straight_blonde,"""blond straight hair""","""sarı düz saç""",hair,[0.98],"""straight blond hair""","""düz sarı saç""",5652,19,,
951,condition1,old,bearded,man_old_bearded,"""old bearded man""","""yaşlı sakallı adam""",man,[0.97],"""bearded old man""","""sakallı yaşlı adam""",4053,20,,
951,condition1,black and white,square,picture_bw_square,"""square black and white picture""","""kare siyah beyaz resim""",picture,[0.98],"""black and white square picture""","""siyah beyaz kare resim""",6207,21,,
951,condition1,mustache-touting,glasses-wearing,man2_mustached_glassed,"""mustache-touting glasses-wearing man""","""bıyıklı gözlüklü adam""",man,[0.97],"""glasses-wearing mustache-touting man""","""gözlüklü bıyıklı adam""",7454,22,,
951,condition1,old,sad,woman_old_sad,"""old sad woman""","""yaşlı mutsuz kadın""",woman,[0.98],"""sad old woman""","""mutsuz yaşlı kadın""",5541,23,,
951,condition1,open,wooden,box_open_wood,"""wooden open box""","""tahta açık kutu""",box,[0.99],"""open wooden box""","""açık tahta kutu""",4613,24,,
951,condition1,wooden,dirty,spoon_wooden_dirty,"""wooden dirty spoon""","""tahta kirli kaşık""",spoon,[0.98],"""dirty wooden spoon""","""kirli tahta kaşık""",4056,25,,
951,condition1,wet,red,shorts_wet_red,"""wet red shorts""","""ıslak kırmızı şort""",shorts,[0.98],"""red wet shorts""","""kırmızı ıslak şort""",5186,26,,
951,condition1,small,triangular,earring_small_triangular,"""triangular small earring""","""üçgen küçük küpe""",earring,[0.98],"""small triangular earring""","""küçük üçgen küpe""",3712,27,,
951,condition1,striped,red,frog_striped_red,"""striped red frog""","""çizgili kırmızı kurbağa""",frog,[0],"""red striped frog""","""kırmızı çizgili kurbağa""",25768,28,,
951,condition1,young,sad,woman_young_sad,"""sad young woman""","""mutsuz genç kadın""",woman,[0.01],"""young sad woman""","""genç mutsuz kadın""",7893,29,,
951,condition1,young,clean-shaven,man_young_cleanshaven,"""clean-shaven young man""","""sakalsız genç adam""",man,[0.05],"""young clean-shaven man""","""genç sakalsız adam""",17196,30,,
951,condition1,happy,skinny,woman2_happy_skinny,"""skinny happy woman""","""zayıf mutlu kadın""",woman,[0.08],"""happy skinny woman""","""mutlu zayıf kadın""",7186,31,,
951,condition1,striped,green,frog_striped_green,"""green striped frog""","""yeşil çizgili kurbağa""",frog,[0.95],"""striped green frog""","""çizgili yeşil kurbağa""",3890,32,,
951,condition1,black,matte,nails_black_matte,"""black matte nails""","""siyah mat oje""",nails,[0.03],"""matte black nails""","""mat siyah oje""",4621,33,,
951,condition1,spotted,green,frog_spotted_green,"""spotted green frog""","""benekli yeşil kurbağa""",frog,[0.06],"""green spotted frog""","""yeşil benekli kurbağa""",5276,34,,
951,condition1,young,happy,woman_young_happy,"""happy young woman""","""mutlu genç kadın""",woman,[0.96],"""young happy woman""","""genç mutlu kadın""",3661,35,,
951,condition1,big,round,earring_big_round,"""big round earring""","""büyük yuvarlak küpe""",earring,[0.97],"""round big earring""","""yuvarlak büyük küpe""",4223,36,,
951,condition1,short,blue,pencil_short_blue,"""short blue pencil""","""kısa mavi kalem""",pencil,[0.03],"""blue short pencil""","""mavi kısa kalem""",5137,37,,
951,condition1,glass,big,bottle_glass_big,"""glass big bottle""","""cam büyük şişe""",bottle,[0.97],"""big glass bottle""","""büyük cam şişe""",4970,38,,
951,condition1,closed,cardboard,box_closed_cardboard,"""cardboard closed box""","""karton kapalı kutu""",box,[0.96],"""closed cardboard box""","""kapalı karton kutu""",3058,39,,
951,condition1,spotted,red,frog_spotted_red,"""red spotted frog""","""kırmızı benekli kurbağa""",frog,[0.97],"""spotted red frog""","""benekli kırmızı kurbağa""",6873,40,,
951,condition1,black and white,rectangular,picture_bw_rectangular,"""black and white rectangular picture""","""siyah beyaz dikdörtgen resim""",picture,[0.02],"""rectangular black and white picture""","""dikdörtgen siyah beyaz resim""",12878,41,,
951,condition1,old,happy,woman_old_happy,"""old happy woman""","""yaşlı mutlu kadın""",woman,[0.9],"""happy old woman""","""mutlu yaşlı kadın""",105430,42,,
951,condition1,metal,dirty,spoon_metal_dirty,"""metal dirty spoon""","""metal kirli kaşık""",spoon,[0.98],"""dirty metal spoon""","""kirli metal kaşık""",4373,43,,
951,condition1,wet,green,shorts_wet_green,"""green wet shorts""","""yeşil ıslak şort""",shorts,[0.91],"""wet green shorts""","""ıslak yeşil şort""",4727,44,,
951,condition1,happy,fat,woman2_happy_fat,"""fat happy woman""","""şişman mutlu kadın""",woman,[0.03],"""happy fat woman""","""mutlu şişman kadın""",4675,45,,
951,condition1,metal,low,table_metal_low,"""low metal table""","""alçak metal masa""",table,[0.03],"""metal low table""","""metal alçak masa""",3851,46,,
951,condition1,red,glossy,nails_red_glossy,"""red glossy nails""","""kırmızı parlak oje""",nails,[0.06],"""glossy red nails""","""parlak kırmızı oje""",12006,47,,
951,condition1,colored,square,picture_colored_square,"""square colored picture""","""kare renkli resim""",picture,[0.93],"""colored square picture""","""renkli kare resim""",6439,48,,
951,condition1,straight,brown,hair_straight_brown,"""straight brown hair""","""düz kahverengi saç""",hair,[0.96],"""brown straight hair""","""kahverengi düz saç""",8883,49,,
951,condition1,glass,small,bottle_glass_small,"""glass small bottle""","""cam küçük şişe""",bottle,[0.97],"""small glass bottle""","""küçük cam şişe""",3066,50,,
951,condition1,open,cardboard,box_open_cardboard,"""cardboard open box""","""karton açık kutu""",box,[0.95],"""open cardboard box""","""açık karton kutu""",3595,51,,
951,condition1,long,blue,pencil_long_blue,"""long blue pencil""","""uzun mavi kalem""",pencil,[0.03],"""blue long pencil""","""mavi uzun kalem""",3892,52,,
951,condition1,dry,red,shorts_dry_red,"""red dry shorts""","""kırmızı kuru şort""",shorts,[0.02],"""dry red shorts""","""kuru kırmızı şort""",5853,53,,
951,condition1,black,glossy,nails_black_glossy,"""glossy black nails""","""parlak siyah oje""",nails,[0.96],"""black glossy nails""","""siyah parlak oje""",4109,54,,
951,condition1,small,round,earring_small_round,"""small round earring""","""küçük yuvarlak küpe""",earring,[0.01],"""round small earring""","""yuvarlak küçük küpe""",8366,55,,
951,condition1,red,matte,nails_red_matte,"""matte red nails""","""mat kırmızı oje""",nails,[0.96],"""red matte nails""","""kırmızı mat oje""",3278,56,,
951,condition1,curly,brown,hair_curly_brown,"""curly brown hair""","""kıvırcık kahverengi saç""",hair,[0.97],"""brown curly hair""","""kahverengi kıvırcık saç""",3846,57,,
951,condition1,plastic,big,bottle_plastic_big,"""big plastic bottle""","""büyük plastik şişe""",bottle,[0.01],"""plastic big bottle""","""plastik büyük şişe""",4221,58,,
951,condition1,mustache-touting,hat-wearing,man2_mustached_hatted,"""hat-wearing mustache-touting man""","""şapkalı bıyıklı adam""",man,[0.98],"""mustache-touting hat-wearing man""","""bıyıklı şapkalı adam""",3688,59,,
951,condition1,plastic,small,bottle_plastic_small,"""plastic small bottle""","""plastik küçük şişe""",bottle,[0.98],"""small plastic bottle""","""küçük plastik şişe""",2842,60,,
951,condition1,sad,fat,woman2_sad_fat,"""fat sad woman""","""şişman mutsuz kadın""",woman,[0],"""sad fat woman""","""mutsuz şişman kadın""",3279,61,,
951,condition1,wooden,high,table_wood_high,"""wooden high table""","""tahta yüksek masa""",table,[0.96],"""high wooden table""","""yüksek tahta masa""",3812,62,,
941,condition1,,,,,,beyaz,Beyaz,,,0,1,bot_check,
941,condition1,happy,skinny,woman2_happy_skinny,"""skinny happy woman""","""zayıf mutlu kadın""",woman,[1],"""happy skinny woman""","""mutlu zayıf kadın""",29101,3,,
941,condition1,happy,fat,woman2_happy_fat,"""fat happy woman""","""şişman mutlu kadın""",woman,[1],"""happy fat woman""","""mutlu şişman kadın""",13559,4,,
941,condition1,curly,blond,hair_curly_blonde,"""curly blond hair""","""kıvırcık sarı saç""",hair,[1],"""blond curly hair""","""sarı kıvırcık saç""",12455,5,,
941,condition1,young,clean-shaven,man_young_cleanshaven,"""young clean-shaven man""","""genç sakalsız adam""",man,[1],"""clean-shaven young man""","""sakalsız genç adam""",10977,6,,
941,condition1,curly,brown,hair_curly_brown,"""curly brown hair""","""kıvırcık kahverengi saç""",hair,[1],"""brown curly hair""","""kahverengi kıvırcık saç""",7355,7,,
941,condition1,open,cardboard,box_open_cardboard,"""cardboard open box""","""karton açık kutu""",box,[1],"""open cardboard box""","""açık karton kutu""",11631,8,,
941,condition1,dry,red,shorts_dry_red,"""dry red shorts""","""kuru kırmızı şort""",shorts,[1],"""red dry shorts""","""kırmızı kuru şort""",17763,9,,
941,condition1,wet,red,shorts_wet_red,"""wet red shorts""","""ıslak kırmızı şort""",shorts,[1],"""red wet shorts""","""kırmızı ıslak şort""",15403,10,,
941,condition1,bearded,hat-wearing,man2_bearded_hatted,"""hat-wearing bearded man""","""şapkalı sakallı adam""",man,[1],"""bearded hat-wearing man""","""sakallı şapkalı adam""",15441,11,,
941,condition1,small,triangular,earring_small_triangular,"""triangular small earring""","""üçgen küçük küpe""",earring,[1],"""small triangular earring""","""küçük üçgen küpe""",7151,12,,
941,condition1,striped,red,frog_striped_red,"""striped red frog""","""çizgili kırmızı kurbağa""",frog,[1],"""red striped frog""","""kırmızı çizgili kurbağa""",13700,13,,
941,condition1,metal,dirty,spoon_metal_dirty,"""dirty metal spoon""","""kirli metal kaşık""",spoon,[0.01],"""metal dirty spoon""","""metal kirli kaşık""",25052,14,,
941,condition1,small,round,earring_small_round,"""small round earring""","""küçük yuvarlak küpe""",earring,[0.98],"""round small earring""","""yuvarlak küçük küpe""",13734,15,,
941,condition1,mustache-touting,hat-wearing,man2_mustached_hatted,"""mustache-touting hat-wearing man""","""bıyıklı şapkalı adam""",man,[0.99],"""hat-wearing mustache-touting man""","""şapkalı bıyıklı adam""",12828,16,,
941,condition1,spotted,red,frog_spotted_red,"""red spotted frog""","""kırmızı benekli kurbağa""",frog,[1],"""spotted red frog""","""benekli kırmızı kurbağa""",20220,17,,
941,condition1,sad,fat,woman2_sad_fat,"""fat sad woman""","""şişman mutsuz kadın""",woman,[1],"""sad fat woman""","""mutsuz şişman kadın""",15144,18,,
941,condition1,straight,blond,hair_straight_blonde,"""straight blond hair""","""düz sarı saç""",hair,[0],"""blond straight hair""","""sarı düz saç""",11792,19,,
941,condition1,glass,small,bottle_glass_small,"""glass small bottle""","""cam küçük şişe""",bottle,[1],"""small glass bottle""","""küçük cam şişe""",7524,20,,
941,condition1,long,black,pencil_long_black,"""long black pencil""","""uzun siyah kalem""",pencil,[0.03],"""black long pencil""","""siyah uzun kalem""",19908,21,,
941,condition1,big,round,earring_big_round,"""big round earring""","""büyük yuvarlak küpe""",earring,[0],"""round big earring""","""yuvarlak büyük küpe""",33203,22,,
941,condition1,mustache-touting,glasses-wearing,man2_mustached_glassed,"""mustache-touting glasses-wearing man""","""bıyıklı gözlüklü adam""",man,[1],"""glasses-wearing mustache-touting man""","""gözlüklü bıyıklı adam""",7432,23,,
941,condition1,red,glossy,nails_red_glossy,"""glossy red nails""","""parlak kırmızı oje""",nails,[0],"""red glossy nails""","""kırmızı parlak oje""",9450,24,,
941,condition1,glass,big,bottle_glass_big,"""glass big bottle""","""cam büyük şişe""",bottle,[1],"""big glass bottle""","""büyük cam şişe""",6468,25,,
941,condition1,metal,clean,spoon_metal_clean,"""clean metal spoon""","""temiz metal kaşık""",spoon,[0],"""metal clean spoon""","""metal temiz kaşık""",8076,26,,
941,condition1,bearded,glasses-wearing,man2_bearded_glassed,"""bearded glasses-wearing man""","""sakallı gözlüklü adam""",man,[1],"""glasses-wearing bearded man""","""gözlüklü sakallı adam""",8187,27,,
941,condition1,black,matte,nails_black_matte,"""matte black nails""","""mat siyah oje""",nails,[0],"""black matte nails""","""siyah mat oje""",8760,28,,
941,condition1,big,triangular,earring_big_triangular,"""triangular big earring""","""üçgen büyük küpe""",earring,[0.99],"""big triangular earring""","""büyük üçgen küpe""",9156,29,,
941,condition1,old,sad,woman_old_sad,"""sad old woman""","""mutsuz yaşlı kadın""",woman,[0],"""old sad woman""","""yaşlı mutsuz kadın""",13696,30,,
941,condition1,metal,low,table_metal_low,"""low metal table""","""alçak metal masa""",table,[0],"""metal low table""","""metal alçak masa""",10462,31,,
941,condition1,wooden,clean,spoon_wooden_clean,"""clean wooden spoon""","""temiz tahta kaşık""",spoon,[0],"""wooden clean spoon""","""tahta temiz kaşık""",9504,32,,
941,condition1,old,bearded,man_old_bearded,"""bearded old man""","""sakallı yaşlı adam""",man,[0],"""old bearded man""","""yaşlı sakallı adam""",8861,33,,
941,condition1,colored,square,picture_colored_square,"""colored square picture""","""renkli kare resim""",picture,[0],"""square colored picture""","""kare renkli resim""",14892,34,,
941,condition1,wet,green,shorts_wet_green,"""wet green shorts""","""ıslak yeşil şort""",shorts,[0],"""green wet shorts""","""yeşil ıslak şort""",18344,35,,
941,condition1,striped,green,frog_striped_green,"""green striped frog""","""yeşil çizgili kurbağa""",frog,[0.99],"""striped green frog""","""çizgili yeşil kurbağa""",19056,36,,
941,condition1,closed,wooden,box_closed_wood,"""closed wooden box""","""kapalı tahta kutu""",box,[0.01],"""wooden closed box""","""tahta kapalı kutu""",10711,37,,
941,condition1,open,wooden,box_open_wood,"""wooden open box""","""tahta açık kutu""",box,[0.98],"""open wooden box""","""açık tahta kutu""",5946,38,,
941,condition1,colored,rectangular,picture_colored_rectangular,"""rectangular colored picture""","""dikdörtgen renkli resim""",picture,[0.99],"""colored rectangular picture""","""renkli dikdörtgen resim""",9178,39,,
941,condition1,wooden,low,table_wood_low,"""low wooden table""","""alçak tahta masa""",table,[0.02],"""wooden low table""","""tahta alçak masa""",7080,40,,
941,condition1,straight,brown,hair_straight_brown,"""straight brown hair""","""düz kahverengi saç""",hair,[0.98],"""brown straight hair""","""kahverengi düz saç""",5060,41,,
941,condition1,metal,high,table_metal_high,"""metal high table""","""metal yüksek masa""",table,[0.99],"""high metal table""","""yüksek metal masa""",6240,42,,
941,condition1,black,glossy,nails_black_glossy,"""black glossy nails""","""siyah parlak oje""",nails,[0.99],"""glossy black nails""","""parlak siyah oje""",7166,43,,
941,condition1,old,clean-shaven,man_old_cleanshaven,"""old clean-shaven man""","""yaşlı sakalsız adam""",man,[0.98],"""clean-shaven old man""","""sakalsız yaşlı adam""",6318,44,,
941,condition1,black and white,rectangular,picture_bw_rectangular,"""rectangular black and white picture""","""dikdörtgen siyah beyaz resim""",picture,[1],"""black and white rectangular picture""","""siyah beyaz dikdörtgen resim""",16937,45,,
941,condition1,dry,green,shorts_dry_green,"""green dry shorts""","""yeşil kuru şort""",shorts,[0.99],"""dry green shorts""","""kuru yeşil şort""",6659,46,,
941,condition1,spotted,green,frog_spotted_green,"""spotted green frog""","""benekli yeşil kurbağa""",frog,[0.01],"""green spotted frog""","""yeşil benekli kurbağa""",7826,47,,
941,condition1,short,blue,pencil_short_blue,"""short blue pencil""","""kısa mavi kalem""",pencil,[0],"""blue short pencil""","""mavi kısa kalem""",8260,48,,
941,condition1,short,black,pencil_short_black,"""black short pencil""","""siyah kısa kalem""",pencil,[0.98],"""short black pencil""","""kısa siyah kalem""",8819,49,,
941,condition1,black and white,square,picture_bw_square,"""black and white square picture""","""siyah beyaz kare resim""",picture,[0],"""square black and white picture""","""kare siyah beyaz resim""",8850,50,,
941,condition1,red,matte,nails_red_matte,"""matte red nails""","""mat kırmızı oje""",nails,[0.02],"""red matte nails""","""kırmızı mat oje""",12084,51,,
941,condition1,plastic,big,bottle_plastic_big,"""big plastic bottle""","""büyük plastik şişe""",bottle,[0],"""plastic big bottle""","""plastik büyük şişe""",9309,52,,
941,condition1,long,blue,pencil_long_blue,"""blue long pencil""","""mavi uzun kalem""",pencil,[1],"""long blue pencil""","""uzun mavi kalem""",7710,53,,
941,condition1,wooden,dirty,spoon_wooden_dirty,"""wooden dirty spoon""","""tahta kirli kaşık""",spoon,[1],"""dirty wooden spoon""","""kirli tahta kaşık""",6208,54,,
941,condition1,sad,skinny,woman2_sad_skinny,"""skinny sad woman""","""zayıf mutsuz kadın""",woman,[0.99],"""sad skinny woman""","""mutsuz zayıf kadın""",25116,55,,
941,condition1,old,happy,woman_old_happy,"""old happy woman""","""yaşlı mutlu kadın""",woman,[0.99],"""happy old woman""","""mutlu yaşlı kadın""",9690,56,,
941,condition1,young,sad,woman_young_sad,"""sad young woman""","""mutsuz genç kadın""",woman,[0.01],"""young sad woman""","""genç mutsuz kadın""",13558,57,,
941,condition1,plastic,small,bottle_plastic_small,"""plastic small bottle""","""plastik küçük şişe""",bottle,[0.98],"""small plastic bottle""","""küçük plastik şişe""",10980,58,,
941,condition1,young,happy,woman_young_happy,"""happy young woman""","""mutlu genç kadın""",woman,[0.01],"""young happy woman""","""genç mutlu kadın""",7218,59,,
941,condition1,wooden,high,table_wood_high,"""wooden high table""","""tahta yüksek masa""",table,[1],"""high wooden table""","""yüksek tahta masa""",17485,60,,
941,condition1,young,bearded,man_young_bearded,"""bearded young man""","""sakallı genç adam""",man,[0],"""young bearded man""","""genç sakallı adam""",10341,61,,
941,condition1,closed,cardboard,box_closed_cardboard,"""cardboard closed box""","""karton kapalı kutu""",box,[1],"""closed cardboard box""","""kapalı karton kutu""",8180,62,,
954,condition1,,,,,,beyaz,ayran,,,0,1,bot_check,
954,condition1,,,,,,beyaz,beyaz,,,0,1,bot_check,
954,condition1,dry,green,shorts_dry_green,"""dry green shorts""","""kuru yeşil şort""",shorts,[0.89],"""green dry shorts""","""yeşil kuru şort""",6663,3,,
954,condition1,glass,big,bottle_glass_big,"""big glass bottle""","""büyük cam şişe""",bottle,[0],"""glass big bottle""","""cam büyük şişe""",4161,4,,
954,condition1,small,triangular,earring_small_triangular,"""small triangular earring""","""küçük üçgen küpe""",earring,[0.09],"""triangular small earring""","""üçgen küçük küpe""",5059,5,,
954,condition1,closed,wooden,box_closed_wood,"""wooden closed box""","""tahta kapalı kutu""",box,[1],"""closed wooden box""","""kapalı tahta kutu""",5538,6,,
954,condition1,black and white,rectangular,picture_bw_rectangular,"""rectangular black and white picture""","""dikdörtgen siyah beyaz resim""",picture,[0.74],"""black and white rectangular picture""","""siyah beyaz dikdörtgen resim""",9189,7,,
954,condition1,straight,blond,hair_straight_blonde,"""straight blond hair""","""düz sarı saç""",hair,[0.51],"""blond straight hair""","""sarı düz saç""",9165,8,,
954,condition1,wet,red,shorts_wet_red,"""wet red shorts""","""ıslak kırmızı şort""",shorts,[0.5],"""red wet shorts""","""kırmızı ıslak şort""",5669,9,,
954,condition1,dry,red,shorts_dry_red,"""dry red shorts""","""kuru kırmızı şort""",shorts,[0.78],"""red dry shorts""","""kırmızı kuru şort""",9097,10,,
954,condition1,curly,brown,hair_curly_brown,"""curly brown hair""","""kıvırcık kahverengi saç""",hair,[0.49],"""brown curly hair""","""kahverengi kıvırcık saç""",6298,11,,
954,condition1,spotted,green,frog_spotted_green,"""green spotted frog""","""yeşil benekli kurbağa""",frog,[0.77],"""spotted green frog""","""benekli yeşil kurbağa""",10288,12,,
954,condition1,wooden,clean,spoon_wooden_clean,"""wooden clean spoon""","""tahta temiz kaşık""",spoon,[0.84],"""clean wooden spoon""","""temiz tahta kaşık""",5385,13,,
954,condition1,sad,skinny,woman2_sad_skinny,"""skinny sad woman""","""zayıf mutsuz kadın""",woman,[0.87],"""sad skinny woman""","""mutsuz zayıf kadın""",7471,14,,
954,condition1,big,round,earring_big_round,"""round big earring""","""yuvarlak büyük küpe""",earring,[0.68],"""big round earring""","""büyük yuvarlak küpe""",5740,15,,
954,condition1,colored,rectangular,picture_colored_rectangular,"""rectangular colored picture""","""dikdörtgen renkli resim""",picture,[0.65],"""colored rectangular picture""","""renkli dikdörtgen resim""",5662,16,,
954,condition1,short,black,pencil_short_black,"""black short pencil""","""siyah kısa kalem""",pencil,[0.73],"""short black pencil""","""kısa siyah kalem""",5114,17,,
954,condition1,open,wooden,box_open_wood,"""open wooden box""","""açık tahta kutu""",box,[0.26],"""wooden open box""","""tahta açık kutu""",12501,18,,
954,condition1,happy,fat,woman2_happy_fat,"""fat happy woman""","""şişman mutlu kadın""",woman,[0.83],"""happy fat woman""","""mutlu şişman kadın""",5087,19,,
954,condition1,mustache-touting,glasses-wearing,man2_mustached_glassed,"""mustache-touting glasses-wearing man""","""bıyıklı gözlüklü adam""",man,[0.76],"""glasses-wearing mustache-touting man""","""gözlüklü bıyıklı adam""",4245,20,,
954,condition1,closed,cardboard,box_closed_cardboard,"""closed cardboard box""","""kapalı karton kutu""",box,[0.23],"""cardboard closed box""","""karton kapalı kutu""",6387,21,,
954,condition1,black,matte,nails_black_matte,"""black matte nails""","""siyah mat oje""",nails,[0.28],"""matte black nails""","""mat siyah oje""",23814,22,,
954,condition1,red,glossy,nails_red_glossy,"""red glossy nails""","""kırmızı parlak oje""",nails,[0.77],"""glossy red nails""","""parlak kırmızı oje""",7489,23,,
954,condition1,wooden,low,table_wood_low,"""low wooden table""","""alçak tahta masa""",table,[0.08],"""wooden low table""","""tahta alçak masa""",14152,24,,
954,condition1,striped,red,frog_striped_red,"""striped red frog""","""çizgili kırmızı kurbağa""",frog,[0.12],"""red striped frog""","""kırmızı çizgili kurbağa""",31399,25,,
954,condition1,metal,high,table_metal_high,"""metal high table""","""metal yüksek masa""",table,[0.69],"""high metal table""","""yüksek metal masa""",22121,26,,
954,condition1,metal,dirty,spoon_metal_dirty,"""dirty metal spoon""","""kirli metal kaşık""",spoon,[0.19],"""metal dirty spoon""","""metal kirli kaşık""",20373,27,,
954,condition1,red,matte,nails_red_matte,"""red matte nails""","""kırmızı mat oje""",nails,[0.64],"""matte red nails""","""mat kırmızı oje""",49431,28,,
954,condition1,young,clean-shaven,man_young_cleanshaven,"""young clean-shaven man""","""genç sakalsız adam""",man,[0.52],"""clean-shaven young man""","""sakalsız genç adam""",9381,29,,
954,condition1,straight,brown,hair_straight_brown,"""straight brown hair""","""düz kahverengi saç""",hair,[0.5],"""brown straight hair""","""kahverengi düz saç""",18548,30,,
954,condition1,curly,blond,hair_curly_blonde,"""curly blond hair""","""kıvırcık sarı saç""",hair,[0.42],"""blond curly hair""","""sarı kıvırcık saç""",8206,31,,
954,condition1,old,clean-shaven,man_old_cleanshaven,"""old clean-shaven man""","""yaşlı sakalsız adam""",man,[0.6],"""clean-shaven old man""","""sakalsız yaşlı adam""",8695,32,,
954,condition1,wooden,high,table_wood_high,"""high wooden table""","""yüksek tahta masa""",table,[0.21],"""wooden high table""","""tahta yüksek masa""",5829,33,,
954,condition1,metal,clean,spoon_metal_clean,"""metal clean spoon""","""metal temiz kaşık""",spoon,[0.92],"""clean metal spoon""","""temiz metal kaşık""",6358,34,,
954,condition1,mustache-touting,hat-wearing,man2_mustached_hatted,"""mustache-touting hat-wearing man""","""bıyıklı şapkalı adam""",man,[0.51],"""hat-wearing mustache-touting man""","""şapkalı bıyıklı adam""",5662,35,,
954,condition1,happy,skinny,woman2_happy_skinny,"""happy skinny woman""","""mutlu zayıf kadın""",woman,[0.85],"""skinny happy woman""","""zayıf mutlu kadın""",34511,36,,
954,condition1,open,cardboard,box_open_cardboard,"""cardboard open box""","""karton açık kutu""",box,[0.9],"""open cardboard box""","""açık karton kutu""",8322,37,,
954,condition1,young,bearded,man_young_bearded,"""young bearded man""","""genç sakallı adam""",man,[0.58],"""bearded young man""","""sakallı genç adam""",6688,38,,
954,condition1,long,black,pencil_long_black,"""black long pencil""","""siyah uzun kalem""",pencil,[0.5],"""long black pencil""","""uzun siyah kalem""",7020,39,,
954,condition1,colored,square,picture_colored_square,"""colored square picture""","""renkli kare resim""",picture,[0.33],"""square colored picture""","""kare renkli resim""",5104,40,,
954,condition1,wet,green,shorts_wet_green,"""wet green shorts""","""ıslak yeşil şort""",shorts,[0.33],"""green wet shorts""","""yeşil ıslak şort""",6046,41,,
954,condition1,young,sad,woman_young_sad,"""young sad woman""","""genç mutsuz kadın""",woman,[0.88],"""sad young woman""","""mutsuz genç kadın""",5383,42,,
954,condition1,big,triangular,earring_big_triangular,"""triangular big earring""","""üçgen büyük küpe""",earring,[0.71],"""big triangular earring""","""büyük üçgen küpe""",5060,43,,
954,condition1,short,blue,pencil_short_blue,"""short blue pencil""","""kısa mavi kalem""",pencil,[0.7],"""blue short pencil""","""mavi kısa kalem""",62106,44,,
954,condition1,wooden,dirty,spoon_wooden_dirty,"""wooden dirty spoon""","""tahta kirli kaşık""",spoon,[0.87],"""dirty wooden spoon""","""kirli tahta kaşık""",9972,45,,
954,condition1,old,bearded,man_old_bearded,"""bearded old man""","""sakallı yaşlı adam""",man,[0.49],"""old bearded man""","""yaşlı sakallı adam""",6749,46,,
954,condition1,sad,fat,woman2_sad_fat,"""fat sad woman""","""şişman mutsuz kadın""",woman,[0.5],"""sad fat woman""","""mutsuz şişman kadın""",40758,47,,
954,condition1,old,sad,woman_old_sad,"""old sad woman""","""yaşlı mutsuz kadın""",woman,[0.66],"""sad old woman""","""mutsuz yaşlı kadın""",12302,48,,
954,condition1,young,happy,woman_young_happy,"""happy young woman""","""mutlu genç kadın""",woman,[0.3],"""young happy woman""","""genç mutlu kadın""",47379,49,,
954,condition1,black and white,square,picture_bw_square,"""black and white square picture""","""siyah beyaz kare resim""",picture,[0.35],"""square black and white picture""","""kare siyah beyaz resim""",31367,50,,
954,condition1,bearded,hat-wearing,man2_bearded_hatted,"""bearded hat-wearing man""","""sakallı şapkalı adam""",man,[0.56],"""hat-wearing bearded man""","""şapkalı sakallı adam""",17006,51,,
954,condition1,glass,small,bottle_glass_small,"""glass small bottle""","""cam küçük şişe""",bottle,[0.9],"""small glass bottle""","""küçük cam şişe""",13719,52,,
954,condition1,bearded,glasses-wearing,man2_bearded_glassed,"""glasses-wearing bearded man""","""gözlüklü sakallı adam""",man,[0.41],"""bearded glasses-wearing man""","""sakallı gözlüklü adam""",10983,53,,
954,condition1,small,round,earring_small_round,"""round small earring""","""yuvarlak küçük küpe""",earring,[0.81],"""small round earring""","""küçük yuvarlak küpe""",10314,54,,
954,condition1,old,happy,woman_old_happy,"""old happy woman""","""yaşlı mutlu kadın""",woman,[0.69],"""happy old woman""","""mutlu yaşlı kadın""",6407,55,,
954,condition1,metal,low,table_metal_low,"""low metal table""","""alçak metal masa""",table,[0.34],"""metal low table""","""metal alçak masa""",7483,56,,
954,condition1,spotted,red,frog_spotted_red,"""spotted red frog""","""benekli kırmızı kurbağa""",frog,[0.29],"""red spotted frog""","""kırmızı benekli kurbağa""",105406,57,,
954,condition1,long,blue,pencil_long_blue,"""blue long pencil""","""mavi uzun kalem""",pencil,[0.68],"""long blue pencil""","""uzun mavi kalem""",18329,58,,
954,condition1,striped,green,frog_striped_green,"""striped green frog""","""çizgili yeşil kurbağa""",frog,[0.35],"""green striped frog""","""yeşil çizgili kurbağa""",16969,59,,
954,condition1,black,glossy,nails_black_glossy,"""black glossy nails""","""siyah parlak oje""",nails,[0.62],"""glossy black nails""","""parlak siyah oje""",9072,60,,
954,condition1,plastic,small,bottle_plastic_small,"""small plastic bottle""","""küçük plastik şişe""",bottle,[0.24],"""plastic small bottle""","""plastik küçük şişe""",8967,61,,
954,condition1,plastic,big,bottle_plastic_big,"""big plastic bottle""","""büyük plastik şişe""",bottle,[0.25],"""plastic big bottle""","""plastik büyük şişe""",7113,62,,
966,condition1,,,,,,beyaz,Beyaz,,,0,1,bot_check,
966,condition1,closed,wooden,box_closed_wood,"""closed wooden box""","""kapalı tahta kutu""",box,[0.03],"""wooden closed box""","""tahta kapalı kutu""",15300,3,,
966,condition1,mustache-touting,hat-wearing,man2_mustached_hatted,"""hat-wearing mustache-touting man""","""şapkalı bıyıklı adam""",man,[0.98],"""mustache-touting hat-wearing man""","""bıyıklı şapkalı adam""",7238,4,,
966,condition1,open,cardboard,box_open_cardboard,"""cardboard open box""","""karton açık kutu""",box,[0.99],"""open cardboard box""","""açık karton kutu""",4423,5,,
966,condition1,big,triangular,earring_big_triangular,"""triangular big earring""","""üçgen büyük küpe""",earring,[0.99],"""big triangular earring""","""büyük üçgen küpe""",6929,6,,
966,condition1,black and white,square,picture_bw_square,"""black and white square picture""","""siyah beyaz kare resim""",picture,[0.03],"""square black and white picture""","""kare siyah beyaz resim""",8311,7,,
966,condition1,spotted,green,frog_spotted_green,"""green spotted frog""","""yeşil benekli kurbağa""",frog,[0.98],"""spotted green frog""","""benekli yeşil kurbağa""",5376,8,,
966,condition1,black,matte,nails_black_matte,"""matte black nails""","""mat siyah oje""",nails,[0.01],"""black matte nails""","""siyah mat oje""",4719,9,,
966,condition1,sad,fat,woman2_sad_fat,"""fat sad woman""","""şişman mutsuz kadın""",woman,[0.97],"""sad fat woman""","""mutsuz şişman kadın""",4231,10,,
966,condition1,short,black,pencil_short_black,"""black short pencil""","""siyah kısa kalem""",pencil,[0.97],"""short black pencil""","""kısa siyah kalem""",6960,11,,
966,condition1,mustache-touting,glasses-wearing,man2_mustached_glassed,"""glasses-wearing mustache-touting man""","""gözlüklü bıyıklı adam""",man,[0],"""mustache-touting glasses-wearing man""","""bıyıklı gözlüklü adam""",8031,12,,
966,condition1,colored,square,picture_colored_square,"""square colored picture""","""kare renkli resim""",picture,[0.99],"""colored square picture""","""renkli kare resim""",4481,13,,
966,condition1,metal,dirty,spoon_metal_dirty,"""dirty metal spoon""","""kirli metal kaşık""",spoon,[0.98],"""metal dirty spoon""","""metal kirli kaşık""",4743,14,,
966,condition1,wet,red,shorts_wet_red,"""wet red shorts""","""ıslak kırmızı şort""",shorts,[0.99],"""red wet shorts""","""kırmızı ıslak şort""",4120,15,,
966,condition1,young,clean-shaven,man_young_cleanshaven,"""clean-shaven young man""","""sakalsız genç adam""",man,[0.03],"""young clean-shaven man""","""genç sakalsız adam""",4496,16,,
966,condition1,happy,skinny,woman2_happy_skinny,"""happy skinny woman""","""mutlu zayıf kadın""",woman,[0.99],"""skinny happy woman""","""zayıf mutlu kadın""",5336,17,,
966,condition1,young,sad,woman_young_sad,"""sad young woman""","""mutsuz genç kadın""",woman,[0.08],"""young sad woman""","""genç mutsuz kadın""",13321,18,,
966,condition1,dry,green,shorts_dry_green,"""green dry shorts""","""yeşil kuru şort""",shorts,[0.03],"""dry green shorts""","""kuru yeşil şort""",8687,19,,
966,condition1,metal,clean,spoon_metal_clean,"""metal clean spoon""","""metal temiz kaşık""",spoon,[0.98],"""clean metal spoon""","""temiz metal kaşık""",4488,20,,
966,condition1,old,happy,woman_old_happy,"""old happy woman""","""yaşlı mutlu kadın""",woman,[0.01],"""happy old woman""","""mutlu yaşlı kadın""",6400,21,,
966,condition1,spotted,red,frog_spotted_red,"""spotted red frog""","""benekli kırmızı kurbağa""",frog,[0.98],"""red spotted frog""","""kırmızı benekli kurbağa""",5888,22,,
966,condition1,black,glossy,nails_black_glossy,"""glossy black nails""","""parlak siyah oje""",nails,[0.98],"""black glossy nails""","""siyah parlak oje""",3440,23,,
966,condition1,black and white,rectangular,picture_bw_rectangular,"""rectangular black and white picture""","""dikdörtgen siyah beyaz resim""",picture,[0.02],"""black and white rectangular picture""","""siyah beyaz dikdörtgen resim""",9951,24,,
966,condition1,straight,brown,hair_straight_brown,"""brown straight hair""","""kahverengi düz saç""",hair,[0.03],"""straight brown hair""","""düz kahverengi saç""",66025,25,,
966,condition1,wooden,low,table_wood_low,"""wooden low table""","""tahta alçak masa""",table,[0.98],"""low wooden table""","""alçak tahta masa""",4823,26,,
966,condition1,red,glossy,nails_red_glossy,"""red glossy nails""","""kırmızı parlak oje""",nails,[0.97],"""glossy red nails""","""parlak kırmızı oje""",2961,27,,
966,condition1,wooden,high,table_wood_high,"""high wooden table""","""yüksek tahta masa""",table,[0.02],"""wooden high table""","""tahta yüksek masa""",4384,28,,
966,condition1,sad,skinny,woman2_sad_skinny,"""sad skinny woman""","""mutsuz zayıf kadın""",woman,[0.97],"""skinny sad woman""","""zayıf mutsuz kadın""",6639,29,,
966,condition1,curly,brown,hair_curly_brown,"""brown curly hair""","""kahverengi kıvırcık saç""",hair,[0.99],"""curly brown hair""","""kıvırcık kahverengi saç""",5025,30,,
966,condition1,small,triangular,earring_small_triangular,"""small triangular earring""","""küçük üçgen küpe""",earring,[0.04],"""triangular small earring""","""üçgen küçük küpe""",7559,31,,
966,condition1,wet,green,shorts_wet_green,"""wet green shorts""","""ıslak yeşil şort""",shorts,[0.98],"""green wet shorts""","""yeşil ıslak şort""",3647,32,,
966,condition1,colored,rectangular,picture_colored_rectangular,"""colored rectangular picture""","""renkli dikdörtgen resim""",picture,[0.97],"""rectangular colored picture""","""dikdörtgen renkli resim""",6591,33,,
966,condition1,small,round,earring_small_round,"""round small earring""","""yuvarlak küçük küpe""",earring,[0.95],"""small round earring""","""küçük yuvarlak küpe""",3455,34,,
966,condition1,glass,big,bottle_glass_big,"""big glass bottle""","""büyük cam şişe""",bottle,[0.01],"""glass big bottle""","""cam büyük şişe""",3856,35,,
966,condition1,long,blue,pencil_long_blue,"""long blue pencil""","""uzun mavi kalem""",pencil,[0.97],"""blue long pencil""","""mavi uzun kalem""",5232,36,,
966,condition1,straight,blond,hair_straight_blonde,"""straight blond hair""","""düz sarı saç""",hair,[0.99],"""blond straight hair""","""sarı düz saç""",44023,37,,
966,condition1,plastic,small,bottle_plastic_small,"""plastic small bottle""","""plastik küçük şişe""",bottle,[0.96],"""small plastic bottle""","""küçük plastik şişe""",3345,38,,
966,condition1,bearded,glasses-wearing,man2_bearded_glassed,"""glasses-wearing bearded man""","""gözlüklü sakallı adam""",man,[0.98],"""bearded glasses-wearing man""","""sakallı gözlüklü adam""",4040,39,,
966,condition1,metal,high,table_metal_high,"""high metal table""","""yüksek metal masa""",table,[0.01],"""metal high table""","""metal yüksek masa""",3608,40,,
966,condition1,big,round,earring_big_round,"""round big earring""","""yuvarlak büyük küpe""",earring,[0.98],"""big round earring""","""büyük yuvarlak küpe""",3952,41,,
966,condition1,red,matte,nails_red_matte,"""red matte nails""","""kırmızı mat oje""",nails,[0.03],"""matte red nails""","""mat kırmızı oje""",3464,42,,
966,condition1,old,bearded,man_old_bearded,"""bearded old man""","""sakallı yaşlı adam""",man,[0.99],"""old bearded man""","""yaşlı sakallı adam""",5750,43,,
966,condition1,bearded,hat-wearing,man2_bearded_hatted,"""bearded hat-wearing man""","""sakallı şapkalı adam""",man,[0.02],"""hat-wearing bearded man""","""şapkalı sakallı adam""",4808,44,,
966,condition1,metal,low,table_metal_low,"""low metal table""","""alçak metal masa""",table,[0.01],"""metal low table""","""metal alçak masa""",3144,45,,
966,condition1,curly,blond,hair_curly_blonde,"""blond curly hair""","""sarı kıvırcık saç""",hair,[0.98],"""curly blond hair""","""kıvırcık sarı saç""",4431,46,,
966,condition1,striped,red,frog_striped_red,"""striped red frog""","""çizgili kırmızı kurbağa""",frog,[0.98],"""red striped frog""","""kırmızı çizgili kurbağa""",3488,47,,
966,condition1,wooden,dirty,spoon_wooden_dirty,"""dirty wooden spoon""","""kirli tahta kaşık""",spoon,[0],"""wooden dirty spoon""","""tahta kirli kaşık""",3535,48,,
966,condition1,wooden,clean,spoon_wooden_clean,"""clean wooden spoon""","""temiz tahta kaşık""",spoon,[0.02],"""wooden clean spoon""","""tahta temiz kaşık""",4168,49,,
966,condition1,closed,cardboard,box_closed_cardboard,"""cardboard closed box""","""karton kapalı kutu""",box,[0.97],"""closed cardboard box""","""kapalı karton kutu""",3591,50,,
966,condition1,dry,red,shorts_dry_red,"""red dry shorts""","""kırmızı kuru şort""",shorts,[0.98],"""dry red shorts""","""kuru kırmızı şort""",3160,51,,
966,condition1,glass,small,bottle_glass_small,"""small glass bottle""","""küçük cam şişe""",bottle,[0.03],"""glass small bottle""","""cam küçük şişe""",3495,52,,
966,condition1,long,black,pencil_long_black,"""long black pencil""","""uzun siyah kalem""",pencil,[0.99],"""black long pencil""","""siyah uzun kalem""",6928,53,,
966,condition1,plastic,big,bottle_plastic_big,"""big plastic bottle""","""büyük plastik şişe""",bottle,[0.98],"""plastic big bottle""","""plastik büyük şişe""",3609,54,,
966,condition1,happy,fat,woman2_happy_fat,"""fat happy woman""","""şişman mutlu kadın""",woman,[0.99],"""happy fat woman""","""mutlu şişman kadın""",7352,55,,
966,condition1,open,wooden,box_open_wood,"""open wooden box""","""açık tahta kutu""",box,[0.02],"""wooden open box""","""tahta açık kutu""",4383,56,,
966,condition1,young,bearded,man_young_bearded,"""bearded young man""","""sakallı genç adam""",man,[0.02],"""young bearded man""","""genç sakallı adam""",3536,57,,
966,condition1,old,clean-shaven,man_old_cleanshaven,"""old clean-shaven man""","""yaşlı sakalsız adam""",man,[0.99],"""clean-shaven old man""","""sakalsız yaşlı adam""",5232,58,,
966,condition1,short,blue,pencil_short_blue,"""short blue pencil""","""kısa mavi kalem""",pencil,[0.97],"""blue short pencil""","""mavi kısa kalem""",2880,59,,
966,condition1,old,sad,woman_old_sad,"""sad old woman""","""mutsuz yaşlı kadın""",woman,[0.98],"""old sad woman""","""yaşlı mutsuz kadın""",6776,60,,
966,condition1,striped,green,frog_striped_green,"""green striped frog""","""yeşil çizgili kurbağa""",frog,[0.98],"""striped green frog""","""çizgili yeşil kurbağa""",3080,61,,
966,condition1,young,happy,woman_young_happy,"""young happy woman""","""genç mutlu kadın""",woman,[0.03],"""happy young woman""","""mutlu genç kadın""",3856,62,,
962,condition1,,,,,,beyaz,Beyaz,,,0,1,bot_check,
962,condition1,open,wooden,box_open_wood,"""wooden open box""","""tahta açık kutu""",box,[0.99],"""open wooden box""","""açık tahta kutu""",9864,3,,
962,condition1,closed,cardboard,box_closed_cardboard,"""cardboard closed box""","""karton kapalı kutu""",box,[0.99],"""closed cardboard box""","""kapalı karton kutu""",3993,4,,
962,condition1,happy,skinny,woman2_happy_skinny,"""skinny happy woman""","""zayıf mutlu kadın""",woman,[0.76],"""happy skinny woman""","""mutlu zayıf kadın""",17398,5,,
962,condition1,dry,red,shorts_dry_red,"""red dry shorts""","""kırmızı kuru şort""",shorts,[0.74],"""dry red shorts""","""kuru kırmızı şort""",3840,6,,
962,condition1,long,blue,pencil_long_blue,"""long blue pencil""","""uzun mavi kalem""",pencil,[0.5],"""blue long pencil""","""mavi uzun kalem""",4507,7,,
962,condition1,happy,fat,woman2_happy_fat,"""happy fat woman""","""mutlu şişman kadın""",woman,[0.49],"""fat happy woman""","""şişman mutlu kadın""",4590,8,,
962,condition1,spotted,green,frog_spotted_green,"""spotted green frog""","""benekli yeşil kurbağa""",frog,[0.49],"""green spotted frog""","""yeşil benekli kurbağa""",8173,9,,
962,condition1,black and white,square,picture_bw_square,"""black and white square picture""","""siyah beyaz kare resim""",picture,[0.21],"""square black and white picture""","""kare siyah beyaz resim""",5468,10,,
962,condition1,young,sad,woman_young_sad,"""young sad woman""","""genç mutsuz kadın""",woman,[0.84],"""sad young woman""","""mutsuz genç kadın""",5400,11,,
962,condition1,plastic,big,bottle_plastic_big,"""plastic big bottle""","""plastik büyük şişe""",bottle,[1],"""big plastic bottle""","""büyük plastik şişe""",5258,12,,
962,condition1,colored,rectangular,picture_colored_rectangular,"""colored rectangular picture""","""renkli dikdörtgen resim""",picture,[0.36],"""rectangular colored picture""","""dikdörtgen renkli resim""",3967,13,,
962,condition1,plastic,small,bottle_plastic_small,"""plastic small bottle""","""plastik küçük şişe""",bottle,[0.99],"""small plastic bottle""","""küçük plastik şişe""",3466,14,,
962,condition1,mustache-touting,hat-wearing,man2_mustached_hatted,"""hat-wearing mustache-touting man""","""şapkalı bıyıklı adam""",man,[0.5],"""mustache-touting hat-wearing man""","""bıyıklı şapkalı adam""",7916,15,,
962,condition1,wooden,low,table_wood_low,"""low wooden table""","""alçak tahta masa""",table,[0.29],"""wooden low table""","""tahta alçak masa""",6672,16,,
962,condition1,long,black,pencil_long_black,"""black long pencil""","""siyah uzun kalem""",pencil,[0.49],"""long black pencil""","""uzun siyah kalem""",3584,17,,
962,condition1,spotted,red,frog_spotted_red,"""red spotted frog""","""kırmızı benekli kurbağa""",frog,[0.48],"""spotted red frog""","""benekli kırmızı kurbağa""",2847,18,,
962,condition1,wooden,clean,spoon_wooden_clean,"""wooden clean spoon""","""tahta temiz kaşık""",spoon,[0.99],"""clean wooden spoon""","""temiz tahta kaşık""",7787,19,,
962,condition1,open,cardboard,box_open_cardboard,"""cardboard open box""","""karton açık kutu""",box,[0.97],"""open cardboard box""","""açık karton kutu""",3425,20,,
962,condition1,small,triangular,earring_small_triangular,"""triangular small earring""","""üçgen küçük küpe""",earring,[0.49],"""small triangular earring""","""küçük üçgen küpe""",4164,21,,
962,condition1,wooden,high,table_wood_high,"""wooden high table""","""tahta yüksek masa""",table,[0.98],"""high wooden table""","""yüksek tahta masa""",3616,22,,
962,condition1,old,bearded,man_old_bearded,"""bearded old man""","""sakallı yaşlı adam""",man,[0.01],"""old bearded man""","""yaşlı sakallı adam""",5217,23,,
962,condition1,straight,blond,hair_straight_blonde,"""straight blond hair""","""düz sarı saç""",hair,[0.2],"""blond straight hair""","""sarı düz saç""",6513,24,,
962,condition1,metal,high,table_metal_high,"""metal high table""","""metal yüksek masa""",table,[0.99],"""high metal table""","""yüksek metal masa""",3380,25,,
962,condition1,striped,red,frog_striped_red,"""striped red frog""","""çizgili kırmızı kurbağa""",frog,[0.49],"""red striped frog""","""kırmızı çizgili kurbağa""",2688,26,,
962,condition1,young,happy,woman_young_happy,"""happy young woman""","""mutlu genç kadın""",woman,[0.74],"""young happy woman""","""genç mutlu kadın""",5120,27,,
962,condition1,curly,brown,hair_curly_brown,"""brown curly hair""","""kahverengi kıvırcık saç""",hair,[0.8],"""curly brown hair""","""kıvırcık kahverengi saç""",14236,28,,
962,condition1,old,happy,woman_old_happy,"""old happy woman""","""yaşlı mutlu kadın""",woman,[0.48],"""happy old woman""","""mutlu yaşlı kadın""",3865,29,,
962,condition1,short,black,pencil_short_black,"""black short pencil""","""siyah kısa kalem""",pencil,[0.78],"""short black pencil""","""kısa siyah kalem""",6492,30,,
962,condition1,mustache-touting,glasses-wearing,man2_mustached_glassed,"""mustache-touting glasses-wearing man""","""bıyıklı gözlüklü adam""",man,[0.52],"""glasses-wearing mustache-touting man""","""gözlüklü bıyıklı adam""",4238,31,,
962,condition1,metal,low,table_metal_low,"""metal low table""","""metal alçak masa""",table,[0.99],"""low metal table""","""alçak metal masa""",3278,32,,
962,condition1,wet,green,shorts_wet_green,"""wet green shorts""","""ıslak yeşil şort""",shorts,[0.01],"""green wet shorts""","""yeşil ıslak şort""",6972,33,,
962,condition1,young,clean-shaven,man_young_cleanshaven,"""young clean-shaven man""","""genç sakalsız adam""",man,[0.85],"""clean-shaven young man""","""sakalsız genç adam""",3492,34,,
962,condition1,red,glossy,nails_red_glossy,"""glossy red nails""","""parlak kırmızı oje""",nails,[0.98],"""red glossy nails""","""kırmızı parlak oje""",3890,35,,
962,condition1,black,glossy,nails_black_glossy,"""black glossy nails""","""siyah parlak oje""",nails,[0.01],"""glossy black nails""","""parlak siyah oje""",6178,36,,
962,condition1,black and white,rectangular,picture_bw_rectangular,"""rectangular black and white picture""","""dikdörtgen siyah beyaz resim""",picture,[0.51],"""black and white rectangular picture""","""siyah beyaz dikdörtgen resim""",5641,37,,
962,condition1,metal,clean,spoon_metal_clean,"""clean metal spoon""","""temiz metal kaşık""",spoon,[0.03],"""metal clean spoon""","""metal temiz kaşık""",3787,38,,
962,condition1,black,matte,nails_black_matte,"""black matte nails""","""siyah mat oje""",nails,[0.98],"""matte black nails""","""mat siyah oje""",4561,39,,
