workerid,proliferate.condition,adj1,adj2,label,left_end,left_end_tr,object,response,right_end,right_end_tr,rt,slide_number_in_experiment,trial_type,catch_trials,subject_information.age,subject_information.asses,subject_information.comments,subject_information.education,subject_information.enjoyment,subject_information.gender,subject_information.language,system.Browser,system.OS,system.screenH,system.screenW,time_in_minutes,error
973,condition1,,,,,,beyaz,beyaz,,,0,1,bot_check,[],27,Yes,,4,1,Female,Turkce,Chrome,Windows,864,1536,20.697166666666668,
973,condition1,wooden,clean,spoon_wooden_clean,"""wooden clean spoon""","""tahta temiz kaşık""",spoon,[0.94],"""clean wooden spoon""","""temiz tahta kaşık""",4775,3,,[],27,Yes,,4,1,Female,Turkce,Chrome,Windows,864,1536,20.697166666666668,
973,condition1,straight,brown,hair_straight_brown,"""straight brown hair""","""düz kahverengi saç""",hair,[0.11],"""brown straight hair""","""kahverengi düz saç""",26607,4,,[],27,Yes,,4,1,Female,Turkce,Chrome,Windows,864,1536,20.697166666666668,
973,condition1,wooden,dirty,spoon_wooden_dirty,"""dirty wooden spoon""","""kirli tahta kaşık""",spoon,[0.1],"""wooden dirty spoon""","""tahta kirli kaşık""",26177,5,,[],27,Yes,,4,1,Female,Turkce,Chrome,Windows,864,1536,20.697166666666668,
973,condition1,red,matte,nails_red_matte,"""red matte nails""","""kırmızı mat oje""",nails,[0.9],"""matte red nails""","""mat kırmızı oje""",34454,6,,[],27,Yes,,4,1,Female,Turkce,Chrome,Windows,864,1536,20.697166666666668,
973,condition1,black and white,square,picture_bw_square,"""black and white square picture""","""siyah beyaz kare resim""",picture,[0.13],"""square black and white picture""","""kare siyah beyaz resim""",11289,7,,[],27,Yes,,4,1,Female,Turkce,Chrome,Windows,864,1536,20.697166666666668,
973,condition1,big,round,earring_big_round,"""big round earring""","""büyük yuvarlak küpe""",earring,[0.16],"""round big earring""","""yuvarlak büyük küpe""",32080,8,,[],27,Yes,,4,1,Female,Turkce,Chrome,Windows,864,1536,20.697166666666668,
973,condition1,open,wooden,box_open_wood,"""open wooden box""","""açık tahta kutu""",box,[0.13],"""wooden open box""","""tahta açık kutu""",38320,9,,[],27,Yes,,4,1,Female,Turkce,Chrome,Windows,864,1536,20.697166666666668,
973,condition1,black,matte,nails_black_matte,"""black matte nails""","""siyah mat oje""",nails,[0.9],"""matte black nails""","""mat siyah oje""",33321,10,,[],27,Yes,,4,1,Female,Turkce,Chrome,Windows,864,1536,20.697166666666668,
973,condition1,curly,brown,hair_curly_brown,"""curly brown hair""","""kıvırcık kahverengi saç""",hair,[0.15],"""brown curly hair""","""kahverengi kıvırcık saç""",29032,11,,[],27,Yes,,4,1,Female,Turkce,Chrome,Windows,864,1536,20.697166666666668,
973,condition1,young,bearded,man_young_bearded,"""bearded young man""","""sakallı genç adam""",man,[0.89],"""young bearded man""","""genç sakallı adam""",51503,12,,[],27,Yes,,4,1,Female,Turkce,Chrome,Windows,864,1536,20.697166666666668,
973,condition1,open,cardboard,box_open_cardboard,"""open cardboard box""","""açık karton kutu""",box,[0],"""cardboard open box""","""karton açık kutu""",42989,13,,[],27,Yes,,4,1,Female,Turkce,Chrome,Windows,864,1536,20.697166666666668,
973,condition1,colored,square,picture_colored_square,"""colored square picture""","""renkli kare resim""",picture,[0.91],"""square colored picture""","""kare renkli resim""",133630,14,,[],27,Yes,,4,1,Female,Turkce,Chrome,Windows,864,1536,20.697166666666668,
973,condition1,closed,cardboard,box_closed_cardboard,"""closed cardboard box""","""kapalı karton kutu""",box,[0.06],"""cardboard closed box""","""karton kapalı kutu""",44304,15,,[],27,Yes,,4,1,Female,Turkce,Chrome,Windows,864,1536,20.697166666666668,
973,condition1,glass,big,bottle_glass_big,"""glass big bottle""","""cam büyük şişe""",bottle,[0.89],"""big glass bottle""","""büyük cam şişe""",99587,16,,[],27,Yes,,4,1,Female,Turkce,Chrome,Windows,864,1536,20.697166666666668,
973,condition1,young,sad,woman_young_sad,"""sad young woman""","""mutsuz genç kadın""",woman,[0.05],"""young sad woman""","""genç mutsuz kadın""",47526,17,,[],27,Yes,,4,1,Female,Turkce,Chrome,Windows,864,1536,20.697166666666668,
973,condition1,glass,small,bottle_glass_small,"""small glass bottle""","""küçük cam şişe""",bottle,[0.94],"""glass small bottle""","""cam küçük şişe""",342193,18,,[],27,Yes,,4,1,Female,Turkce,Chrome,Windows,864,1536,20.697166666666668,
973,condition1,happy,skinny,woman2_happy_skinny,"""happy skinny woman""","""mutlu zayıf kadın""",woman,[0.08],"""skinny happy woman""","""zayıf mutlu kadın""",54502,19,,[],27,Yes,,4,1,Female,Turkce,Chrome,Windows,864,1536,20.697166666666668,
973,condition1,young,clean-shaven,man_young_cleanshaven,"""young clean-shaven man""","""genç sakalsız adam""",man,[0.95],"""clean-shaven young man""","""sakalsız genç adam""",34990,20,,[],27,Yes,,4,1,Female,Turkce,Chrome,Windows,864,1536,20.697166666666668,
973,condition1,long,black,pencil_long_black,"""long black pencil""","""uzun siyah kalem""",pencil,[0.07],"""black long pencil""","""siyah uzun kalem""",7028,21,,[],27,Yes,,4,1,Female,Turkce,Chrome,Windows,864,1536,20.697166666666668,
973,condition1,old,clean-shaven,man_old_cleanshaven,"""old clean-shaven man""","""yaşlı sakalsız adam""",man,[0.1],"""clean-shaven old man""","""sakalsız yaşlı adam""",2950,22,,[],27,Yes,,4,1,Female,Turkce,Chrome,Windows,864,1536,20.697166666666668,
973,condition1,metal,low,table_metal_low,"""metal low table""","""metal alçak masa""",table,[0.92],"""low metal table""","""alçak metal masa""",2194,23,,[],27,Yes,,4,1,Female,Turkce,Chrome,Windows,864,1536,20.697166666666668,
973,condition1,young,happy,woman_young_happy,"""happy young woman""","""mutlu genç kadın""",woman,[0.1],"""young happy woman""","""genç mutlu kadın""",1838,24,,[],27,Yes,,4,1,Female,Turkce,Chrome,Windows,864,1536,20.697166666666668,
973,condition1,bearded,hat-wearing,man2_bearded_hatted,"""hat-wearing bearded man""","""şapkalı sakallı adam""",man,[0.07],"""bearded hat-wearing man""","""sakallı şapkalı adam""",2479,25,,[],27,Yes,,4,1,Female,Turkce,Chrome,Windows,864,1536,20.697166666666668,
973,condition1,striped,red,frog_striped_red,"""striped red frog""","""çizgili kırmızı kurbağa""",frog,[0.95],"""red striped frog""","""kırmızı çizgili kurbağa""",2363,26,,[],27,Yes,,4,1,Female,Turkce,Chrome,Windows,864,1536,20.697166666666668,
973,condition1,dry,green,shorts_dry_green,"""green dry shorts""","""yeşil kuru şort""",shorts,[0.91],"""dry green shorts""","""kuru yeşil şort""",2684,27,,[],27,Yes,,4,1,Female,Turkce,Chrome,Windows,864,1536,20.697166666666668,
973,condition1,short,blue,pencil_short_blue,"""short blue pencil""","""kısa mavi kalem""",pencil,[0.07],"""blue short pencil""","""mavi kısa kalem""",2018,28,,[],27,Yes,,4,1,Female,Turkce,Chrome,Windows,864,1536,20.697166666666668,
973,condition1,short,black,pencil_short_black,"""black short pencil""","""siyah kısa kalem""",pencil,[0.92],"""short black pencil""","""kısa siyah kalem""",1930,29,,[],27,Yes,,4,1,Female,Turkce,Chrome,Windows,864,1536,20.697166666666668,
973,condition1,curly,blond,hair_curly_blonde,"""curly blond hair""","""kıvırcık sarı saç""",hair,[0.11],"""blond curly hair""","""sarı kıvırcık saç""",1714,30,,[],27,Yes,,4,1,Female,Turkce,Chrome,Windows,864,1536,20.697166666666668,
973,condition1,old,bearded,man_old_bearded,"""old bearded man""","""yaşlı sakallı adam""",man,[0.07],"""bearded old man""","""sakallı yaşlı adam""",2054,31,,[],27,Yes,,4,1,Female,Turkce,Chrome,Windows,864,1536,20.697166666666668,
973,condition1,black and white,rectangular,picture_bw_rectangular,"""black and white rectangular picture""","""siyah beyaz dikdörtgen resim""",picture,[0.08],"""rectangular black and white picture""","""dikdörtgen siyah beyaz resim""",3791,32,,[],27,Yes,,4,1,Female,Turkce,Chrome,Windows,864,1536,20.697166666666668,
973,condition1,colored,rectangular,picture_colored_rectangular,"""colored rectangular picture""","""renkli dikdörtgen resim""",picture,[0.89],"""rectangular colored picture""","""dikdörtgen renkli resim""",2408,33,,[],27,Yes,,4,1,Female,Turkce,Chrome,Windows,864,1536,20.697166666666668,
973,condition1,spotted,red,frog_spotted_red,"""spotted red frog""","""benekli kırmızı kurbağa""",frog,[0.92],"""red spotted frog""","""kırmızı benekli kurbağa""",2604,34,,[],27,Yes,,4,1,Female,Turkce,Chrome,Windows,864,1536,20.697166666666668,
973,condition1,small,triangular,earring_small_triangular,"""small triangular earring""","""küçük üçgen küpe""",earring,[0.08],"""triangular small earring""","""üçgen küçük küpe""",2202,35,,[],27,Yes,,4,1,Female,Turkce,Chrome,Windows,864,1536,20.697166666666668,
973,condition1,sad,fat,woman2_sad_fat,"""fat sad woman""","""şişman mutsuz kadın""",woman,[0.06],"""sad fat woman""","""mutsuz şişman kadın""",5072,36,,[],27,Yes,,4,1,Female,Turkce,Chrome,Windows,864,1536,20.697166666666668,
973,condition1,plastic,small,bottle_plastic_small,"""small plastic bottle""","""küçük plastik şişe""",bottle,[0.06],"""plastic small bottle""","""plastik küçük şişe""",2580,37,,[],27,Yes,,4,1,Female,Turkce,Chrome,Windows,864,1536,20.697166666666668,
973,condition1,sad,skinny,woman2_sad_skinny,"""skinny sad woman""","""zayıf mutsuz kadın""",woman,[0],"""sad skinny woman""","""mutsuz zayıf kadın""",4568,38,,[],27,Yes,,4,1,Female,Turkce,Chrome,Windows,864,1536,20.697166666666668,
973,condition1,striped,green,frog_striped_green,"""green striped frog""","""yeşil çizgili kurbağa""",frog,[0.05],"""striped green frog""","""çizgili yeşil kurbağa""",2306,39,,[],27,Yes,,4,1,Female,Turkce,Chrome,Windows,864,1536,20.697166666666668,
973,condition1,wet,red,shorts_wet_red,"""wet red shorts""","""ıslak kırmızı şort""",shorts,[0.94],"""red wet shorts""","""kırmızı ıslak şort""",2824,40,,[],27,Yes,,4,1,Female,Turkce,Chrome,Windows,864,1536,20.697166666666668,
973,condition1,mustache-touting,glasses-wearing,man2_mustached_glassed,"""glasses-wearing mustache-touting man""","""gözlüklü bıyıklı adam""",man,[0.49],"""mustache-touting glasses-wearing man""","""bıyıklı gözlüklü adam""",6254,41,,[],27,Yes,,4,1,Female,Turkce,Chrome,Windows,864,1536,20.697166666666668,
973,condition1,wooden,low,table_wood_low,"""low wooden table""","""alçak tahta masa""",table,[0.1],"""wooden low table""","""tahta alçak masa""",2592,42,,[],27,Yes,,4,1,Female,Turkce,Chrome,Windows,864,1536,20.697166666666668,
973,condition1,mustache-touting,hat-wearing,man2_mustached_hatted,"""hat-wearing mustache-touting man""","""şapkalı bıyıklı adam""",man,[0.06],"""mustache-touting hat-wearing man""","""bıyıklı şapkalı adam""",2168,43,,[],27,Yes,,4,1,Female,Turkce,Chrome,Windows,864,1536,20.697166666666668,
973,condition1,bearded,glasses-wearing,man2_bearded_glassed,"""glasses-wearing bearded man""","""gözlüklü sakallı adam""",man,[0.04],"""bearded glasses-wearing man""","""sakallı gözlüklü adam""",1980,44,,[],27,Yes,,4,1,Female,Turkce,Chrome,Windows,864,1536,20.697166666666668,
973,condition1,long,blue,pencil_long_blue,"""blue long pencil""","""mavi uzun kalem""",pencil,[0.96],"""long blue pencil""","""uzun mavi kalem""",2188,45,,[],27,Yes,,4,1,Female,Turkce,Chrome,Windows,864,1536,20.697166666666668,
973,condition1,wooden,high,table_wood_high,"""high wooden table""","""yüksek tahta masa""",table,[0.05],"""wooden high table""","""tahta yüksek masa""",1946,46,,[],27,Yes,,4,1,Female,Turkce,Chrome,Windows,864,1536,20.697166666666668,
973,condition1,closed,wooden,box_closed_wood,"""closed wooden box""","""kapalı tahta kutu""",box,[0.02],"""wooden closed box""","""tahta kapalı kutu""",2298,47,,[],27,Yes,,4,1,Female,Turkce,Chrome,Windows,864,1536,20.697166666666668,
973,condition1,straight,blond,hair_straight_blonde,"""blond straight hair""","""sarı düz saç""",hair,[0.95],"""straight blond hair""","""düz sarı saç""",2190,48,,[],27,Yes,,4,1,Female,Turkce,Chrome,Windows,864,1536,20.697166666666668,
973,condition1,metal,high,table_metal_high,"""high metal table""","""yüksek metal masa""",table,[0.03],"""metal high table""","""metal yüksek masa""",2342,49,,[],27,Yes,,4,1,Female,Turkce,Chrome,Windows,864,1536,20.697166666666668,
973,condition1,red,glossy,nails_red_glossy,"""red glossy nails""","""kırmızı parlak oje""",nails,[0.97],"""glossy red nails""","""parlak kırmızı oje""",3942,50,,[],27,Yes,,4,1,Female,Turkce,Chrome,Windows,864,1536,20.697166666666668,
973,condition1,plastic,big,bottle_plastic_big,"""plastic big bottle""","""plastik büyük şişe""",bottle,[0.92],"""big plastic bottle""","""büyük plastik şişe""",2176,51,,[],27,Yes,,4,1,Female,Turkce,Chrome,Windows,864,1536,20.697166666666668,
973,condition1,old,sad,woman_old_sad,"""old sad woman""","""yaşlı mutsuz kadın""",woman,[0.91],"""sad old woman""","""mutsuz yaşlı kadın""",1966,52,,[],27,Yes,,4,1,Female,Turkce,Chrome,Windows,864,1536,20.697166666666668,
973,condition1,metal,clean,spoon_metal_clean,"""metal clean spoon""","""metal temiz kaşık""",spoon,[0.93],"""clean metal spoon""","""temiz metal kaşık""",2299,53,,[],27,Yes,,4,1,Female,Turkce,Chrome,Windows,864,1536,20.697166666666668,
973,condition1,spotted,green,frog_spotted_green,"""green spotted frog""","""yeşil benekli kurbağa""",frog,[0.05],"""spotted green frog""","""benekli yeşil kurbağa""",2589,54,,[],27,Yes,,4,1,Female,Turkce,Chrome,Windows,864,1536,20.697166666666668,
973,condition1,black,glossy,nails_black_glossy,"""black glossy nails""","""siyah parlak oje""",nails,[0.97],"""glossy black nails""","""parlak siyah oje""",3608,55,,[],27,Yes,,4,1,Female,Turkce,Chrome,Windows,864,1536,20.697166666666668,
973,condition1,small,round,earring_small_round,"""round small earring""","""yuvarlak küçük küpe""",earring,[0.94],"""small round earring""","""küçük yuvarlak küpe""",2038,56,,[],27,Yes,,4,1,Female,Turkce,Chrome,Windows,864,1536,20.697166666666668,
973,condition1,big,triangular,earring_big_triangular,"""big triangular earring""","""büyük üçgen küpe""",earring,[0.06],"""triangular big earring""","""üçgen büyük küpe""",2390,57,,[],27,Yes,,4,1,Female,Turkce,Chrome,Windows,864,1536,20.697166666666668,
973,condition1,wet,green,shorts_wet_green,"""green wet shorts""","""yeşil ıslak şort""",shorts,[0.95],"""wet green shorts""","""ıslak yeşil şort""",2048,58,,[],27,Yes,,4,1,Female,Turkce,Chrome,Windows,864,1536,20.697166666666668,
973,condition1,old,happy,woman_old_happy,"""happy old woman""","""mutlu yaşlı kadın""",woman,[0.04],"""old happy woman""","""yaşlı mutlu kadın""",3252,59,,[],27,Yes,,4,1,Female,Turkce,Chrome,Windows,864,1536,20.697166666666668,
973,condition1,metal,dirty,spoon_metal_dirty,"""metal dirty spoon""","""metal kirli kaşık""",spoon,[0.49],"""dirty metal spoon""","""kirli metal kaşık""",3488,60,,[],27,Yes,,4,1,Female,Turkce,Chrome,Windows,864,1536,20.697166666666668,
973,condition1,happy,fat,woman2_happy_fat,"""fat happy woman""","""şişman mutlu kadın""",woman,[0.95],"""happy fat woman""","""mutlu şişman kadın""",3302,61,,[],27,Yes,,4,1,Female,Turkce,Chrome,Windows,864,1536,20.697166666666668,
973,condition1,dry,red,shorts_dry_red,"""dry red shorts""","""kuru kırmızı şort""",shorts,[0.04],"""red dry shorts""","""kırmızı kuru şort""",2988,62,,[],27,Yes,,4,1,Female,Turkce,Chrome,Windows,864,1536,20.697166666666668,
968,condition1,,,,,,beyaz,Beyaz,,,0,1,bot_check,[],37,Yes,"Eglenceli bir deneydi, kolay gelsin.",4,1,Male,Turkce,Safari,Mac,1050,1680,8.398716666666667,
968,condition1,spotted,green,frog_spotted_green,"""spotted green frog""","""benekli yeşil kurbağa""",frog,[0.96],"""green spotted frog""","""yeşil benekli kurbağa""",9521,3,,[],37,Yes,"Eglenceli bir deneydi, kolay gelsin.",4,1,Male,Turkce,Safari,Mac,1050,1680,8.398716666666667,
968,condition1,wet,green,shorts_wet_green,"""wet green shorts""","""ıslak yeşil şort""",shorts,[0.02],"""green wet shorts""","""yeşil ıslak şort""",8776,4,,[],37,Yes,"Eglenceli bir deneydi, kolay gelsin.",4,1,Male,Turkce,Safari,Mac,1050,1680,8.398716666666667,
968,condition1,short,blue,pencil_short_blue,"""blue short pencil""","""mavi kısa kalem""",pencil,[0.97],"""short blue pencil""","""kısa mavi kalem""",6207,5,,[],37,Yes,"Eglenceli bir deneydi, kolay gelsin.",4,1,Male,Turkce,Safari,Mac,1050,1680,8.398716666666667,
968,condition1,short,black,pencil_short_black,"""short black pencil""","""kısa siyah kalem""",pencil,[0.01],"""black short pencil""","""siyah kısa kalem""",5030,6,,[],37,Yes,"Eglenceli bir deneydi, kolay gelsin.",4,1,Male,Turkce,Safari,Mac,1050,1680,8.398716666666667,
968,condition1,bearded,hat-wearing,man2_bearded_hatted,"""hat-wearing bearded man""","""şapkalı sakallı adam""",man,[0.98],"""bearded hat-wearing man""","""sakallı şapkalı adam""",11126,7,,[],37,Yes,"Eglenceli bir deneydi, kolay gelsin.",4,1,Male,Turkce,Safari,Mac,1050,1680,8.398716666666667,
968,condition1,dry,green,shorts_dry_green,"""green dry shorts""","""yeşil kuru şort""",shorts,[0.02],"""dry green shorts""","""kuru yeşil şort""",8492,8,,[],37,Yes,"Eglenceli bir deneydi, kolay gelsin.",4,1,Male,Turkce,Safari,Mac,1050,1680,8.398716666666667,
968,condition1,metal,dirty,spoon_metal_dirty,"""metal dirty spoon""","""metal kirli kaşık""",spoon,[0.98],"""dirty metal spoon""","""kirli metal kaşık""",14842,9,,[],37,Yes,"Eglenceli bir deneydi, kolay gelsin.",4,1,Male,Turkce,Safari,Mac,1050,1680,8.398716666666667,
968,condition1,small,triangular,earring_small_triangular,"""small triangular earring""","""küçük üçgen küpe""",earring,[0.03],"""triangular small earring""","""üçgen küçük küpe""",7675,10,,[],37,Yes,"Eglenceli bir deneydi, kolay gelsin.",4,1,Male,Turkce,Safari,Mac,1050,1680,8.398716666666667,
968,condition1,bearded,glasses-wearing,man2_bearded_glassed,"""bearded glasses-wearing man""","""sakallı gözlüklü adam""",man,[0],"""glasses-wearing bearded man""","""gözlüklü sakallı adam""",6940,11,,[],37,Yes,"Eglenceli bir deneydi, kolay gelsin.",4,1,Male,Turkce,Safari,Mac,1050,1680,8.398716666666667,
968,condition1,spotted,red,frog_spotted_red,"""spotted red frog""","""benekli kırmızı kurbağa""",frog,[0.97],"""red spotted frog""","""kırmızı benekli kurbağa""",5493,12,,[],37,Yes,"Eglenceli bir deneydi, kolay gelsin.",4,1,Male,Turkce,Safari,Mac,1050,1680,8.398716666666667,
968,condition1,glass,big,bottle_glass_big,"""glass big bottle""","""cam büyük şişe""",bottle,[0.97],"""big glass bottle""","""büyük cam şişe""",6830,13,,[],37,Yes,"Eglenceli bir deneydi, kolay gelsin.",4,1,Male,Turkce,Safari,Mac,1050,1680,8.398716666666667,
968,condition1,old,clean-shaven,man_old_cleanshaven,"""clean-shaven old man""","""sakalsız yaşlı adam""",man,[0.98],"""old clean-shaven man""","""yaşlı sakalsız adam""",8798,14,,[],37,Yes,"Eglenceli bir deneydi, kolay gelsin.",4,1,Male,Turkce,Safari,Mac,1050,1680,8.398716666666667,
968,condition1,big,round,earring_big_round,"""big round earring""","""büyük yuvarlak küpe""",earring,[0.01],"""round big earring""","""yuvarlak büyük küpe""",9404,15,,[],37,Yes,"Eglenceli bir deneydi, kolay gelsin.",4,1,Male,Turkce,Safari,Mac,1050,1680,8.398716666666667,
968,condition1,colored,square,picture_colored_square,"""colored square picture""","""renkli kare resim""",picture,[0.02],"""square colored picture""","""kare renkli resim""",6904,16,,[],37,Yes,"Eglenceli bir deneydi, kolay gelsin.",4,1,Male,Turkce,Safari,Mac,1050,1680,8.398716666666667,
968,condition1,young,clean-shaven,man_young_cleanshaven,"""young clean-shaven man""","""genç sakalsız adam""",man,[0.99],"""clean-shaven young man""","""sakalsız genç adam""",4035,17,,[],37,Yes,"Eglenceli bir deneydi, kolay gelsin.",4,1,Male,Turkce,Safari,Mac,1050,1680,8.398716666666667,
968,condition1,plastic,small,bottle_plastic_small,"""small plastic bottle""","""küçük plastik şişe""",bottle,[0.01],"""plastic small bottle""","""plastik küçük şişe""",7406,18,,[],37,Yes,"Eglenceli bir deneydi, kolay gelsin.",4,1,Male,Turkce,Safari,Mac,1050,1680,8.398716666666667,
968,condition1,open,cardboard,box_open_cardboard,"""open cardboard box""","""açık karton kutu""",box,[0.03],"""cardboard open box""","""karton açık kutu""",5347,19,,[],37,Yes,"Eglenceli bir deneydi, kolay gelsin.",4,1,Male,Turkce,Safari,Mac,1050,1680,8.398716666666667,
968,condition1,striped,red,frog_striped_red,"""red striped frog""","""kırmızı çizgili kurbağa""",frog,[0],"""striped red frog""","""çizgili kırmızı kurbağa""",5722,20,,[],37,Yes,"Eglenceli bir deneydi, kolay gelsin.",4,1,Male,Turkce,Safari,Mac,1050,1680,8.398716666666667,
968,condition1,long,blue,pencil_long_blue,"""long blue pencil""","""uzun mavi kalem""",pencil,[0.04],"""blue long pencil""","""mavi uzun kalem""",5773,21,,[],37,Yes,"Eglenceli bir deneydi, kolay gelsin.",4,1,Male,Turkce,Safari,Mac,1050,1680,8.398716666666667,
968,condition1,small,round,earring_small_round,"""round small earring""","""yuvarlak küçük küpe""",earring,[0.98],"""small round earring""","""küçük yuvarlak küpe""",4273,22,,[],37,Yes,"Eglenceli bir deneydi, kolay gelsin.",4,1,Male,Turkce,Safari,Mac,1050,1680,8.398716666666667,
968,condition1,black,glossy,nails_black_glossy,"""black glossy nails""","""siyah parlak oje""",nails,[0.98],"""glossy black nails""","""parlak siyah oje""",13299,23,,[],37,Yes,"Eglenceli bir deneydi, kolay gelsin.",4,1,Male,Turkce,Safari,Mac,1050,1680,8.398716666666667,
968,condition1,metal,low,table_metal_low,"""low metal table""","""alçak metal masa""",table,[0],"""metal low table""","""metal alçak masa""",7258,24,,[],37,Yes,"Eglenceli bir deneydi, kolay gelsin.",4,1,Male,Turkce,Safari,Mac,1050,1680,8.398716666666667,
968,condition1,young,sad,woman_young_sad,"""young sad woman""","""genç mutsuz kadın""",woman,[0.97],"""sad young woman""","""mutsuz genç kadın""",8329,25,,[],37,Yes,"Eglenceli bir deneydi, kolay gelsin.",4,1,Male,Turkce,Safari,Mac,1050,1680,8.398716666666667,
968,condition1,red,glossy,nails_red_glossy,"""glossy red nails""","""parlak kırmızı oje""",nails,[0.99],"""red glossy nails""","""kırmızı parlak oje""",7891,26,,[],37,Yes,"Eglenceli bir deneydi, kolay gelsin.",4,1,Male,Turkce,Safari,Mac,1050,1680,8.398716666666667,
968,condition1,black,matte,nails_black_matte,"""matte black nails""","""mat siyah oje""",nails,[0.95],"""black matte nails""","""siyah mat oje""",5463,27,,[],37,Yes,"Eglenceli bir deneydi, kolay gelsin.",4,1,Male,Turkce,Safari,Mac,1050,1680,8.398716666666667,
968,condition1,old,bearded,man_old_bearded,"""old bearded man""","""yaşlı sakallı adam""",man,[0.05],"""bearded old man""","""sakallı yaşlı adam""",15558,28,,[],37,Yes,"Eglenceli bir deneydi, kolay gelsin.",4,1,Male,Turkce,Safari,Mac,1050,1680,8.398716666666667,
968,condition1,big,triangular,earring_big_triangular,"""big triangular earring""","""büyük üçgen küpe""",earring,[0.04],"""triangular big earring""","""üçgen büyük küpe""",5415,29,,[],37,Yes,"Eglenceli bir deneydi, kolay gelsin.",4,1,Male,Turkce,Safari,Mac,1050,1680,8.398716666666667,
968,condition1,glass,small,bottle_glass_small,"""glass small bottle""","""cam küçük şişe""",bottle,[0.94],"""small glass bottle""","""küçük cam şişe""",4731,30,,[],37,Yes,"Eglenceli bir deneydi, kolay gelsin.",4,1,Male,Turkce,Safari,Mac,1050,1680,8.398716666666667,
968,condition1,mustache-touting,hat-wearing,man2_mustached_hatted,"""hat-wearing mustache-touting man""","""şapkalı bıyıklı adam""",man,[0.98],"""mustache-touting hat-wearing man""","""bıyıklı şapkalı adam""",5472,31,,[],37,Yes,"Eglenceli bir deneydi, kolay gelsin.",4,1,Male,Turkce,Safari,Mac,1050,1680,8.398716666666667,
968,condition1,old,sad,woman_old_sad,"""sad old woman""","""mutsuz yaşlı kadın""",woman,[0.95],"""old sad woman""","""yaşlı mutsuz kadın""",3638,32,,[],37,Yes,"Eglenceli bir deneydi, kolay gelsin.",4,1,Male,Turkce,Safari,Mac,1050,1680,8.398716666666667,
968,condition1,plastic,big,bottle_plastic_big,"""plastic big bottle""","""plastik büyük şişe""",bottle,[0.95],"""big plastic bottle""","""büyük plastik şişe""",2948,33,,[],37,Yes,"Eglenceli bir deneydi, kolay gelsin.",4,1,Male,Turkce,Safari,Mac,1050,1680,8.398716666666667,
968,condition1,sad,skinny,woman2_sad_skinny,"""sad skinny woman""","""mutsuz zayıf kadın""",woman,[0.96],"""skinny sad woman""","""zayıf mutsuz kadın""",3689,34,,[],37,Yes,"Eglenceli bir deneydi, kolay gelsin.",4,1,Male,Turkce,Safari,Mac,1050,1680,8.398716666666667,
968,condition1,straight,brown,hair_straight_brown,"""brown straight hair""","""kahverengi düz saç""",hair,[0.98],"""straight brown hair""","""düz kahverengi saç""",4169,35,,[],37,Yes,"Eglenceli bir deneydi, kolay gelsin.",4,1,Male,Turkce,Safari,Mac,1050,1680,8.398716666666667,
968,condition1,wooden,high,table_wood_high,"""wooden high table""","""tahta yüksek masa""",table,[0.96],"""high wooden table""","""yüksek tahta masa""",3811,36,,[],37,Yes,"Eglenceli bir deneydi, kolay gelsin.",4,1,Male,Turkce,Safari,Mac,1050,1680,8.398716666666667,
968,condition1,happy,skinny,woman2_happy_skinny,"""happy skinny woman""","""mutlu zayıf kadın""",woman,[0.96],"""skinny happy woman""","""zayıf mutlu kadın""",4780,37,,[],37,Yes,"Eglenceli bir deneydi, kolay gelsin.",4,1,Male,Turkce,Safari,Mac,1050,1680,8.398716666666667,
968,condition1,curly,blond,hair_curly_blonde,"""blond curly hair""","""sarı kıvırcık saç""",hair,[0.02],"""curly blond hair""","""kıvırcık sarı saç""",9306,38,,[],37,Yes,"Eglenceli bir deneydi, kolay gelsin.",4,1,Male,Turkce,Safari,Mac,1050,1680,8.398716666666667,
968,condition1,colored,rectangular,picture_colored_rectangular,"""rectangular colored picture""","""dikdörtgen renkli resim""",picture,[0.96],"""colored rectangular picture""","""renkli dikdörtgen resim""",9535,39,,[],37,Yes,"Eglenceli bir deneydi, kolay gelsin.",4,1,Male,Turkce,Safari,Mac,1050,1680,8.398716666666667,
968,condition1,metal,high,table_metal_high,"""high metal table""","""yüksek metal masa""",table,[0.02],"""metal high table""","""metal yüksek masa""",7871,40,,[],37,Yes,"Eglenceli bir deneydi, kolay gelsin.",4,1,Male,Turkce,Safari,Mac,1050,1680,8.398716666666667,
968,condition1,striped,green,frog_striped_green,"""green striped frog""","""yeşil çizgili kurbağa""",frog,[0],"""striped green frog""","""çizgili yeşil kurbağa""",12649,41,,[],37,Yes,"Eglenceli bir deneydi, kolay gelsin.",4,1,Male,Turkce,Safari,Mac,1050,1680,8.398716666666667,
968,condition1,sad,fat,woman2_sad_fat,"""fat sad woman""","""şişman mutsuz kadın""",woman,[0.98],"""sad fat woman""","""mutsuz şişman kadın""",18813,42,,[],37,Yes,"Eglenceli bir deneydi, kolay gelsin.",4,1,Male,Turkce,Safari,Mac,1050,1680,8.398716666666667,
968,condition1,open,wooden,box_open_wood,"""wooden open box""","""tahta açık kutu""",box,[0.96],"""open wooden box""","""açık tahta kutu""",6509,43,,[],37,Yes,"Eglenceli bir deneydi, kolay gelsin.",4,1,Male,Turkce,Safari,Mac,1050,1680,8.398716666666667,
968,condition1,mustache-touting,glasses-wearing,man2_mustached_glassed,"""glasses-wearing mustache-touting man""","""gözlüklü bıyıklı adam""",man,[0.98],"""mustache-touting glasses-wearing man""","""bıyıklı gözlüklü adam""",3465,44,,[],37,Yes,"Eglenceli bir deneydi, kolay gelsin.",4,1,Male,Turkce,Safari,Mac,1050,1680,8.398716666666667,
968,condition1,straight,blond,hair_straight_blonde,"""blond straight hair""","""sarı düz saç""",hair,[0.97],"""straight blond hair""","""düz sarı saç""",3481,45,,[],37,Yes,"Eglenceli bir deneydi, kolay gelsin.",4,1,Male,Turkce,Safari,Mac,1050,1680,8.398716666666667,
968,condition1,black and white,square,picture_bw_square,"""square black and white picture""","""kare siyah beyaz resim""",picture,[0.98],"""black and white square picture""","""siyah beyaz kare resim""",6302,46,,[],37,Yes,"Eglenceli bir deneydi, kolay gelsin.",4,1,Male,Turkce,Safari,Mac,1050,1680,8.398716666666667,
968,condition1,curly,brown,hair_curly_brown,"""brown curly hair""","""kahverengi kıvırcık saç""",hair,[0.02],"""curly brown hair""","""kıvırcık kahverengi saç""",5909,47,,[],37,Yes,"Eglenceli bir deneydi, kolay gelsin.",4,1,Male,Turkce,Safari,Mac,1050,1680,8.398716666666667,
968,condition1,closed,cardboard,box_closed_cardboard,"""cardboard closed box""","""karton kapalı kutu""",box,[0.98],"""closed cardboard box""","""kapalı karton kutu""",7148,48,,[],37,Yes,"Eglenceli bir deneydi, kolay gelsin.",4,1,Male,Turkce,Safari,Mac,1050,1680,8.398716666666667,
968,condition1,long,black,pencil_long_black,"""black long pencil""","""siyah uzun kalem""",pencil,[0.99],"""long black pencil""","""uzun siyah kalem""",3092,49,,[],37,Yes,"Eglenceli bir deneydi, kolay gelsin.",4,1,Male,Turkce,Safari,Mac,1050,1680,8.398716666666667,
968,condition1,young,happy,woman_young_happy,"""happy young woman""","""mutlu genç kadın""",woman,[0.97],"""young happy woman""","""genç mutlu kadın""",5675,50,,[],37,Yes,"Eglenceli bir deneydi, kolay gelsin.",4,1,Male,Turkce,Safari,Mac,1050,1680,8.398716666666667,
968,condition1,red,matte,nails_red_matte,"""red matte nails""","""kırmızı mat oje""",nails,[0.98],"""matte red nails""","""mat kırmızı oje""",4795,51,,[],37,Yes,"Eglenceli bir deneydi, kolay gelsin.",4,1,Male,Turkce,Safari,Mac,1050,1680,8.398716666666667,
968,condition1,young,bearded,man_young_bearded,"""young bearded man""","""genç sakallı adam""",man,[0.96],"""bearded young man""","""sakallı genç adam""",3117,52,,[],37,Yes,"Eglenceli bir deneydi, kolay gelsin.",4,1,Male,Turkce,Safari,Mac,1050,1680,8.398716666666667,
968,condition1,dry,red,shorts_dry_red,"""red dry shorts""","""kırmızı kuru şort""",shorts,[0.97],"""dry red shorts""","""kuru kırmızı şort""",5497,53,,[],37,Yes,"Eglenceli bir deneydi, kolay gelsin.",4,1,Male,Turkce,Safari,Mac,1050,1680,8.398716666666667,
968,condition1,wet,red,shorts_wet_red,"""red wet shorts""","""kırmızı ıslak şort""",shorts,[1],"""wet red shorts""","""ıslak kırmızı şort""",9112,54,,[],37,Yes,"Eglenceli bir deneydi, kolay gelsin.",4,1,Male,Turkce,Safari,Mac,1050,1680,8.398716666666667,
968,condition1,happy,fat,woman2_happy_fat,"""happy fat woman""","""mutlu şişman kadın""",woman,[0.96],"""fat happy woman""","""şişman mutlu kadın""",14835,55,,[],37,Yes,"Eglenceli bir deneydi, kolay gelsin.",4,1,Male,Turkce,Safari,Mac,1050,1680,8.398716666666667,
968,condition1,wooden,low,table_wood_low,"""wooden low table""","""tahta alçak masa""",table,[0.98],"""low wooden table""","""alçak tahta masa""",6872,56,,[],37,Yes,"Eglenceli bir deneydi, kolay gelsin.",4,1,Male,Turkce,Safari,Mac,1050,1680,8.398716666666667,
968,condition1,black and white,rectangular,picture_bw_rectangular,"""black and white rectangular picture""","""siyah beyaz dikdörtgen resim""",picture,[0.98],"""rectangular black and white picture""","""dikdörtgen siyah beyaz resim""",5007,57,,[],37,Yes,"Eglenceli bir deneydi, kolay gelsin.",4,1,Male,Turkce,Safari,Mac,1050,1680,8.398716666666667,
968,condition1,metal,clean,spoon_metal_clean,"""metal clean spoon""","""metal temiz kaşık""",spoon,[0.96],"""clean metal spoon""","""temiz metal kaşık""",5952,58,,[],37,Yes,"Eglenceli bir deneydi, kolay gelsin.",4,1,Male,Turkce,Safari,Mac,1050,1680,8.398716666666667,
968,condition1,wooden,dirty,spoon_wooden_dirty,"""wooden dirty spoon""","""tahta kirli kaşık""",spoon,[0.98],"""dirty wooden spoon""","""kirli tahta kaşık""",5410,59,,[],37,Yes,"Eglenceli bir deneydi, kolay gelsin.",4,1,Male,Turkce,Safari,Mac,1050,1680,8.398716666666667,
968,condition1,wooden,clean,spoon_wooden_clean,"""clean wooden spoon""","""temiz tahta kaşık""",spoon,[0.02],"""wooden clean spoon""","""tahta temiz kaşık""",4445,60,,[],37,Yes,"Eglenceli bir deneydi, kolay gelsin.",4,1,Male,Turkce,Safari,Mac,1050,1680,8.398716666666667,
968,condition1,old,happy,woman_old_happy,"""old happy woman""","""yaşlı mutlu kadın""",woman,[0.97],"""happy old woman""","""mutlu yaşlı kadın""",3891,61,,[],37,Yes,"Eglenceli bir deneydi, kolay gelsin.",4,1,Male,Turkce,Safari,Mac,1050,1680,8.398716666666667,
968,condition1,closed,wooden,box_closed_wood,"""closed wooden box""","""kapalı tahta kutu""",box,[0.01],"""wooden closed box""","""tahta kapalı kutu""",8216,62,,[],37,Yes,"Eglenceli bir deneydi, kolay gelsin.",4,1,Male,Turkce,Safari,Mac,1050,1680,8.398716666666667,
971,condition1,,,,,,beyaz,beyaz,,,0,1,bot_check,[],21,Yes,Size bir tavsiyem (for future studies); deney uzundu ve control amacli soru sormadiniz. Bu size dezavantaj yapar... ,2,1,Female,Hollandaca,Chrome,Windows,720,1280,22.074983333333332,
971,condition1,small,round,earring_small_round,"""small round earring""","""küçük yuvarlak küpe""",earring,[0.36],"""round small earring""","""yuvarlak küçük küpe""",20803,3,,[],21,Yes,Size bir tavsiyem (for future studies); deney uzundu ve control amacli soru sormadiniz. Bu size dezavantaj yapar... ,2,1,Female,Hollandaca,Chrome,Windows,720,1280,22.074983333333332,
971,condition1,old,bearded,man_old_bearded,"""old bearded man""","""yaşlı sakallı adam""",man,[0.72],"""bearded old man""","""sakallı yaşlı adam""",17500,4,,[],21,Yes,Size bir tavsiyem (for future studies); deney uzundu ve control amacli soru sormadiniz. Bu size dezavantaj yapar... ,2,1,Female,Hollandaca,Chrome,Windows,720,1280,22.074983333333332,
971,condition1,wooden,high,table_wood_high,"""wooden high table""","""tahta yüksek masa""",table,[0.85],"""high wooden table""","""yüksek tahta masa""",8594,5,,[],21,Yes,Size bir tavsiyem (for future studies); deney uzundu ve control amacli soru sormadiniz. Bu size dezavantaj yapar... ,2,1,Female,Hollandaca,Chrome,Windows,720,1280,22.074983333333332,
971,condition1,closed,cardboard,box_closed_cardboard,"""cardboard closed box""","""karton kapalı kutu""",box,[0.98],"""closed cardboard box""","""kapalı karton kutu""",8841,6,,[],21,Yes,Size bir tavsiyem (for future studies); deney uzundu ve control amacli soru sormadiniz. Bu size dezavantaj yapar... ,2,1,Female,Hollandaca,Chrome,Windows,720,1280,22.074983333333332,
971,condition1,straight,brown,hair_straight_brown,"""straight brown hair""","""düz kahverengi saç""",hair,[0.9],"""brown straight hair""","""kahverengi düz saç""",11716,7,,[],21,Yes,Size bir tavsiyem (for future studies); deney uzundu ve control amacli soru sormadiniz. Bu size dezavantaj yapar... ,2,1,Female,Hollandaca,Chrome,Windows,720,1280,22.074983333333332,
971,condition1,bearded,hat-wearing,man2_bearded_hatted,"""bearded hat-wearing man""","""sakallı şapkalı adam""",man,[0.21],"""hat-wearing bearded man""","""şapkalı sakallı adam""",16153,8,,[],21,Yes,Size bir tavsiyem (for future studies); deney uzundu ve control amacli soru sormadiniz. Bu size dezavantaj yapar... ,2,1,Female,Hollandaca,Chrome,Windows,720,1280,22.074983333333332,
971,condition1,sad,skinny,woman2_sad_skinny,"""skinny sad woman""","""zayıf mutsuz kadın""",woman,[0.85],"""sad skinny woman""","""mutsuz zayıf kadın""",5636,9,,[],21,Yes,Size bir tavsiyem (for future studies); deney uzundu ve control amacli soru sormadiniz. Bu size dezavantaj yapar... ,2,1,Female,Hollandaca,Chrome,Windows,720,1280,22.074983333333332,
971,condition1,spotted,green,frog_spotted_green,"""spotted green frog""","""benekli yeşil kurbağa""",frog,[0.3],"""green spotted frog""","""yeşil benekli kurbağa""",9868,10,,[],21,Yes,Size bir tavsiyem (for future studies); deney uzundu ve control amacli soru sormadiniz. Bu size dezavantaj yapar... ,2,1,Female,Hollandaca,Chrome,Windows,720,1280,22.074983333333332,
971,condition1,wooden,dirty,spoon_wooden_dirty,"""dirty wooden spoon""","""kirli tahta kaşık""",spoon,[0.01],"""wooden dirty spoon""","""tahta kirli kaşık""",9323,11,,[],21,Yes,Size bir tavsiyem (for future studies); deney uzundu ve control amacli soru sormadiniz. Bu size dezavantaj yapar... ,2,1,Female,Hollandaca,Chrome,Windows,720,1280,22.074983333333332,
971,condition1,big,triangular,earring_big_triangular,"""triangular big earring""","""üçgen büyük küpe""",earring,[0.97],"""big triangular earring""","""büyük üçgen küpe""",11132,12,,[],21,Yes,Size bir tavsiyem (for future studies); deney uzundu ve control amacli soru sormadiniz. Bu size dezavantaj yapar... ,2,1,Female,Hollandaca,Chrome,Windows,720,1280,22.074983333333332,
971,condition1,curly,brown,hair_curly_brown,"""brown curly hair""","""kahverengi kıvırcık saç""",hair,[0.99],"""curly brown hair""","""kıvırcık kahverengi saç""",8076,13,,[],21,Yes,Size bir tavsiyem (for future studies); deney uzundu ve control amacli soru sormadiniz. Bu size dezavantaj yapar... ,2,1,Female,Hollandaca,Chrome,Windows,720,1280,22.074983333333332,
971,condition1,mustache-touting,hat-wearing,man2_mustached_hatted,"""hat-wearing mustache-touting man""","""şapkalı bıyıklı adam""",man,[0.27],"""mustache-touting hat-wearing man""","""bıyıklı şapkalı adam""",17168,14,,[],21,Yes,Size bir tavsiyem (for future studies); deney uzundu ve control amacli soru sormadiniz. Bu size dezavantaj yapar... ,2,1,Female,Hollandaca,Chrome,Windows,720,1280,22.074983333333332,
971,condition1,open,wooden,box_open_wood,"""open wooden box""","""açık tahta kutu""",box,[0.02],"""wooden open box""","""tahta açık kutu""",5908,15,,[],21,Yes,Size bir tavsiyem (for future studies); deney uzundu ve control amacli soru sormadiniz. Bu size dezavantaj yapar... ,2,1,Female,Hollandaca,Chrome,Windows,720,1280,22.074983333333332,
971,condition1,dry,green,shorts_dry_green,"""dry green shorts""","""kuru yeşil şort""",shorts,[0.04],"""green dry shorts""","""yeşil kuru şort""",6451,16,,[],21,Yes,Size bir tavsiyem (for future studies); deney uzundu ve control amacli soru sormadiniz. Bu size dezavantaj yapar... ,2,1,Female,Hollandaca,Chrome,Windows,720,1280,22.074983333333332,
971,condition1,metal,high,table_metal_high,"""high metal table""","""yüksek metal masa""",table,[0.01],"""metal high table""","""metal yüksek masa""",44542,17,,[],21,Yes,Size bir tavsiyem (for future studies); deney uzundu ve control amacli soru sormadiniz. Bu size dezavantaj yapar... ,2,1,Female,Hollandaca,Chrome,Windows,720,1280,22.074983333333332,
971,condition1,wooden,low,table_wood_low,"""low wooden table""","""alçak tahta masa""",table,[0],"""wooden low table""","""tahta alçak masa""",6114,18,,[],21,Yes,Size bir tavsiyem (for future studies); deney uzundu ve control amacli soru sormadiniz. Bu size dezavantaj yapar... ,2,1,Female,Hollandaca,Chrome,Windows,720,1280,22.074983333333332,
971,condition1,happy,fat,woman2_happy_fat,"""fat happy woman""","""şişman mutlu kadın""",woman,[0.96],"""happy fat woman""","""mutlu şişman kadın""",12005,19,,[],21,Yes,Size bir tavsiyem (for future studies); deney uzundu ve control amacli soru sormadiniz. Bu size dezavantaj yapar... ,2,1,Female,Hollandaca,Chrome,Windows,720,1280,22.074983333333332,
971,condition1,plastic,big,bottle_plastic_big,"""big plastic bottle""","""büyük plastik şişe""",bottle,[0.01],"""plastic big bottle""","""plastik büyük şişe""",6849,20,,[],21,Yes,Size bir tavsiyem (for future studies); deney uzundu ve control amacli soru sormadiniz. Bu size dezavantaj yapar... ,2,1,Female,Hollandaca,Chrome,Windows,720,1280,22.074983333333332,
971,condition1,happy,skinny,woman2_happy_skinny,"""happy skinny woman""","""mutlu zayıf kadın""",woman,[0.01],"""skinny happy woman""","""zayıf mutlu kadın""",15900,21,,[],21,Yes,Size bir tavsiyem (for future studies); deney uzundu ve control amacli soru sormadiniz. Bu size dezavantaj yapar... ,2,1,Female,Hollandaca,Chrome,Windows,720,1280,22.074983333333332,
971,condition1,glass,small,bottle_glass_small,"""glass small bottle""","""cam küçük şişe""",bottle,[0.98],"""small glass bottle""","""küçük cam şişe""",6943,22,,[],21,Yes,Size bir tavsiyem (for future studies); deney uzundu ve control amacli soru sormadiniz. Bu size dezavantaj yapar... ,2,1,Female,Hollandaca,Chrome,Windows,720,1280,22.074983333333332,
971,condition1,striped,green,frog_striped_green,"""striped green frog""","""çizgili yeşil kurbağa""",frog,[0.99],"""green striped frog""","""yeşil çizgili kurbağa""",7985,23,,[],21,Yes,Size bir tavsiyem (for future studies); deney uzundu ve control amacli soru sormadiniz. Bu size dezavantaj yapar... ,2,1,Female,Hollandaca,Chrome,Windows,720,1280,22.074983333333332,
971,condition1,black and white,rectangular,picture_bw_rectangular,"""black and white rectangular picture""","""siyah beyaz dikdörtgen resim""",picture,[0.99],"""rectangular black and white picture""","""dikdörtgen siyah beyaz resim""",24506,24,,[],21,Yes,Size bir tavsiyem (for future studies); deney uzundu ve control amacli soru sormadiniz. Bu size dezavantaj yapar... ,2,1,Female,Hollandaca,Chrome,Windows,720,1280,22.074983333333332,
971,condition1,closed,wooden,box_closed_wood,"""closed wooden box""","""kapalı tahta kutu""",box,[0.03],"""wooden closed box""","""tahta kapalı kutu""",5309,25,,[],21,Yes,Size bir tavsiyem (for future studies); deney uzundu ve control amacli soru sormadiniz. Bu size dezavantaj yapar... ,2,1,Female,Hollandaca,Chrome,Windows,720,1280,22.074983333333332,
971,condition1,young,sad,woman_young_sad,"""young sad woman""","""genç mutsuz kadın""",woman,[0.96],"""sad young woman""","""mutsuz genç kadın""",6365,26,,[],21,Yes,Size bir tavsiyem (for future studies); deney uzundu ve control amacli soru sormadiniz. Bu size dezavantaj yapar... ,2,1,Female,Hollandaca,Chrome,Windows,720,1280,22.074983333333332,
971,condition1,old,sad,woman_old_sad,"""old sad woman""","""yaşlı mutsuz kadın""",woman,[0.98],"""sad old woman""","""mutsuz yaşlı kadın""",13347,27,,[],21,Yes,Size bir tavsiyem (for future studies); deney uzundu ve control amacli soru sormadiniz. Bu size dezavantaj yapar... ,2,1,Female,Hollandaca,Chrome,Windows,720,1280,22.074983333333332,
971,condition1,old,happy,woman_old_happy,"""old happy woman""","""yaşlı mutlu kadın""",woman,[0.98],"""happy old woman""","""mutlu yaşlı kadın""",7144,28,,[],21,Yes,Size bir tavsiyem (for future studies); deney uzundu ve control amacli soru sormadiniz. Bu size dezavantaj yapar... ,2,1,Female,Hollandaca,Chrome,Windows,720,1280,22.074983333333332,
971,condition1,short,blue,pencil_short_blue,"""blue short pencil""","""mavi kısa kalem""",pencil,[0.99],"""short blue pencil""","""kısa mavi kalem""",7491,29,,[],21,Yes,Size bir tavsiyem (for future studies); deney uzundu ve control amacli soru sormadiniz. Bu size dezavantaj yapar... ,2,1,Female,Hollandaca,Chrome,Windows,720,1280,22.074983333333332,
971,condition1,long,black,pencil_long_black,"""long black pencil""","""uzun siyah kalem""",pencil,[0.02],"""black long pencil""","""siyah uzun kalem""",103860,30,,[],21,Yes,Size bir tavsiyem (for future studies); deney uzundu ve control amacli soru sormadiniz. Bu size dezavantaj yapar... ,2,1,Female,Hollandaca,Chrome,Windows,720,1280,22.074983333333332,
971,condition1,black,glossy,nails_black_glossy,"""glossy black nails""","""parlak siyah oje""",nails,[0.04],"""black glossy nails""","""siyah parlak oje""",5856,31,,[],21,Yes,Size bir tavsiyem (for future studies); deney uzundu ve control amacli soru sormadiniz. Bu size dezavantaj yapar... ,2,1,Female,Hollandaca,Chrome,Windows,720,1280,22.074983333333332,
971,condition1,curly,blond,hair_curly_blonde,"""blond curly hair""","""sarı kıvırcık saç""",hair,[0.96],"""curly blond hair""","""kıvırcık sarı saç""",4499,32,,[],21,Yes,Size bir tavsiyem (for future studies); deney uzundu ve control amacli soru sormadiniz. Bu size dezavantaj yapar... ,2,1,Female,Hollandaca,Chrome,Windows,720,1280,22.074983333333332,
971,condition1,black,matte,nails_black_matte,"""black matte nails""","""siyah mat oje""",nails,[0.04],"""matte black nails""","""mat siyah oje""",4771,33,,[],21,Yes,Size bir tavsiyem (for future studies); deney uzundu ve control amacli soru sormadiniz. Bu size dezavantaj yapar... ,2,1,Female,Hollandaca,Chrome,Windows,720,1280,22.074983333333332,
971,condition1,red,matte,nails_red_matte,"""matte red nails""","""mat kırmızı oje""",nails,[0.97],"""red matte nails""","""kırmızı mat oje""",5603,34,,[],21,Yes,Size bir tavsiyem (for future studies); deney uzundu ve control amacli soru sormadiniz. Bu size dezavantaj yapar... ,2,1,Female,Hollandaca,Chrome,Windows,720,1280,22.074983333333332,
971,condition1,sad,fat,woman2_sad_fat,"""sad fat woman""","""mutsuz şişman kadın""",woman,[0.02],"""fat sad woman""","""şişman mutsuz kadın""",5297,35,,[],21,Yes,Size bir tavsiyem (for future studies); deney uzundu ve control amacli soru sormadiniz. Bu size dezavantaj yapar... ,2,1,Female,Hollandaca,Chrome,Windows,720,1280,22.074983333333332,
971,condition1,metal,clean,spoon_metal_clean,"""clean metal spoon""","""temiz metal kaşık""",spoon,[0.01],"""metal clean spoon""","""metal temiz kaşık""",7595,36,,[],21,Yes,Size bir tavsiyem (for future studies); deney uzundu ve control amacli soru sormadiniz. Bu size dezavantaj yapar... ,2,1,Female,Hollandaca,Chrome,Windows,720,1280,22.074983333333332,
971,condition1,straight,blond,hair_straight_blonde,"""blond straight hair""","""sarı düz saç""",hair,[0.97],"""straight blond hair""","""düz sarı saç""",10720,37,,[],21,Yes,Size bir tavsiyem (for future studies); deney uzundu ve control amacli soru sormadiniz. Bu size dezavantaj yapar... ,2,1,Female,Hollandaca,Chrome,Windows,720,1280,22.074983333333332,
971,condition1,big,round,earring_big_round,"""big round earring""","""büyük yuvarlak küpe""",earring,[0.03],"""round big earring""","""yuvarlak büyük küpe""",16060,38,,[],21,Yes,Size bir tavsiyem (for future studies); deney uzundu ve control amacli soru sormadiniz. Bu size dezavantaj yapar... ,2,1,Female,Hollandaca,Chrome,Windows,720,1280,22.074983333333332,
971,condition1,long,blue,pencil_long_blue,"""blue long pencil""","""mavi uzun kalem""",pencil,[0.02],"""long blue pencil""","""uzun mavi kalem""",45339,39,,[],21,Yes,Size bir tavsiyem (for future studies); deney uzundu ve control amacli soru sormadiniz. Bu size dezavantaj yapar... ,2,1,Female,Hollandaca,Chrome,Windows,720,1280,22.074983333333332,
971,condition1,young,bearded,man_young_bearded,"""bearded young man""","""sakallı genç adam""",man,[0.97],"""young bearded man""","""genç sakallı adam""",7518,40,,[],21,Yes,Size bir tavsiyem (for future studies); deney uzundu ve control amacli soru sormadiniz. Bu size dezavantaj yapar... ,2,1,Female,Hollandaca,Chrome,Windows,720,1280,22.074983333333332,
971,condition1,metal,dirty,spoon_metal_dirty,"""dirty metal spoon""","""kirli metal kaşık""",spoon,[0.02],"""metal dirty spoon""","""metal kirli kaşık""",5325,41,,[],21,Yes,Size bir tavsiyem (for future studies); deney uzundu ve control amacli soru sormadiniz. Bu size dezavantaj yapar... ,2,1,Female,Hollandaca,Chrome,Windows,720,1280,22.074983333333332,
971,condition1,striped,red,frog_striped_red,"""red striped frog""","""kırmızı çizgili kurbağa""",frog,[0.02],"""striped red frog""","""çizgili kırmızı kurbağa""",4154,42,,[],21,Yes,Size bir tavsiyem (for future studies); deney uzundu ve control amacli soru sormadiniz. Bu size dezavantaj yapar... ,2,1,Female,Hollandaca,Chrome,Windows,720,1280,22.074983333333332,
971,condition1,mustache-touting,glasses-wearing,man2_mustached_glassed,"""mustache-touting glasses-wearing man""","""bıyıklı gözlüklü adam""",man,[0.92],"""glasses-wearing mustache-touting man""","""gözlüklü bıyıklı adam""",7676,43,,[],21,Yes,Size bir tavsiyem (for future studies); deney uzundu ve control amacli soru sormadiniz. Bu size dezavantaj yapar... ,2,1,Female,Hollandaca,Chrome,Windows,720,1280,22.074983333333332,
971,condition1,wooden,clean,spoon_wooden_clean,"""wooden clean spoon""","""tahta temiz kaşık""",spoon,[0.96],"""clean wooden spoon""","""temiz tahta kaşık""",4794,44,,[],21,Yes,Size bir tavsiyem (for future studies); deney uzundu ve control amacli soru sormadiniz. Bu size dezavantaj yapar... ,2,1,Female,Hollandaca,Chrome,Windows,720,1280,22.074983333333332,
971,condition1,small,triangular,earring_small_triangular,"""triangular small earring""","""üçgen küçük küpe""",earring,[0.33],"""small triangular earring""","""küçük üçgen küpe""",12488,45,,[],21,Yes,Size bir tavsiyem (for future studies); deney uzundu ve control amacli soru sormadiniz. Bu size dezavantaj yapar... ,2,1,Female,Hollandaca,Chrome,Windows,720,1280,22.074983333333332,
971,condition1,plastic,small,bottle_plastic_small,"""plastic small bottle""","""plastik küçük şişe""",bottle,[0.02],"""small plastic bottle""","""küçük plastik şişe""",9960,46,,[],21,Yes,Size bir tavsiyem (for future studies); deney uzundu ve control amacli soru sormadiniz. Bu size dezavantaj yapar... ,2,1,Female,Hollandaca,Chrome,Windows,720,1280,22.074983333333332,
971,condition1,young,happy,woman_young_happy,"""young happy woman""","""genç mutlu kadın""",woman,[0.48],"""happy young woman""","""mutlu genç kadın""",125753,47,,[],21,Yes,Size bir tavsiyem (for future studies); deney uzundu ve control amacli soru sormadiniz. Bu size dezavantaj yapar... ,2,1,Female,Hollandaca,Chrome,Windows,720,1280,22.074983333333332,
971,condition1,bearded,glasses-wearing,man2_bearded_glassed,"""glasses-wearing bearded man""","""gözlüklü sakallı adam""",man,[0.04],"""bearded glasses-wearing man""","""sakallı gözlüklü adam""",31240,48,,[],21,Yes,Size bir tavsiyem (for future studies); deney uzundu ve control amacli soru sormadiniz. Bu size dezavantaj yapar... ,2,1,Female,Hollandaca,Chrome,Windows,720,1280,22.074983333333332,
971,condition1,glass,big,bottle_glass_big,"""glass big bottle""","""cam büyük şişe""",bottle,[0.95],"""big glass bottle""","""büyük cam şişe""",9972,49,,[],21,Yes,Size bir tavsiyem (for future studies); deney uzundu ve control amacli soru sormadiniz. Bu size dezavantaj yapar... ,2,1,Female,Hollandaca,Chrome,Windows,720,1280,22.074983333333332,
971,condition1,red,glossy,nails_red_glossy,"""red glossy nails""","""kırmızı parlak oje""",nails,[0.03],"""glossy red nails""","""parlak kırmızı oje""",12036,50,,[],21,Yes,Size bir tavsiyem (for future studies); deney uzundu ve control amacli soru sormadiniz. Bu size dezavantaj yapar... ,2,1,Female,Hollandaca,Chrome,Windows,720,1280,22.074983333333332,
971,condition1,spotted,red,frog_spotted_red,"""spotted red frog""","""benekli kırmızı kurbağa""",frog,[0.96],"""red spotted frog""","""kırmızı benekli kurbağa""",38119,51,,[],21,Yes,Size bir tavsiyem (for future studies); deney uzundu ve control amacli soru sormadiniz. Bu size dezavantaj yapar... ,2,1,Female,Hollandaca,Chrome,Windows,720,1280,22.074983333333332,
971,condition1,wet,green,shorts_wet_green,"""wet green shorts""","""ıslak yeşil şort""",shorts,[0.03],"""green wet shorts""","""yeşil ıslak şort""",5534,52,,[],21,Yes,Size bir tavsiyem (for future studies); deney uzundu ve control amacli soru sormadiniz. Bu size dezavantaj yapar... ,2,1,Female,Hollandaca,Chrome,Windows,720,1280,22.074983333333332,
971,condition1,open,cardboard,box_open_cardboard,"""cardboard open box""","""karton açık kutu""",box,[0.99],"""open cardboard box""","""açık karton kutu""",4858,53,,[],21,Yes,Size bir tavsiyem (for future studies); deney uzundu ve control amacli soru sormadiniz. Bu size dezavantaj yapar... ,2,1,Female,Hollandaca,Chrome,Windows,720,1280,22.074983333333332,
971,condition1,black and white,square,picture_bw_square,"""black and white square picture""","""siyah beyaz kare resim""",picture,[0.04],"""square black and white picture""","""kare siyah beyaz resim""",10541,54,,[],21,Yes,Size bir tavsiyem (for future studies); deney uzundu ve control amacli soru sormadiniz. Bu size dezavantaj yapar... ,2,1,Female,Hollandaca,Chrome,Windows,720,1280,22.074983333333332,
971,condition1,old,clean-shaven,man_old_cleanshaven,"""old clean-shaven man""","""yaşlı sakalsız adam""",man,[0.98],"""clean-shaven old man""","""sakalsız yaşlı adam""",5996,55,,[],21,Yes,Size bir tavsiyem (for future studies); deney uzundu ve control amacli soru sormadiniz. Bu size dezavantaj yapar... ,2,1,Female,Hollandaca,Chrome,Windows,720,1280,22.074983333333332,
971,condition1,colored,rectangular,picture_colored_rectangular,"""rectangular colored picture""","""dikdörtgen renkli resim""",picture,[0.06],"""colored rectangular picture""","""renkli dikdörtgen resim""",10789,56,,[],21,Yes,Size bir tavsiyem (for future studies); deney uzundu ve control amacli soru sormadiniz. Bu size dezavantaj yapar... ,2,1,Female,Hollandaca,Chrome,Windows,720,1280,22.074983333333332,
971,condition1,wet,red,shorts_wet_red,"""red wet shorts""","""kırmızı ıslak şort""",shorts,[0.81],"""wet red shorts""","""ıslak kırmızı şort""",6436,57,,[],21,Yes,Size bir tavsiyem (for future studies); deney uzundu ve control amacli soru sormadiniz. Bu size dezavantaj yapar... ,2,1,Female,Hollandaca,Chrome,Windows,720,1280,22.074983333333332,
971,condition1,metal,low,table_metal_low,"""low metal table""","""alçak metal masa""",table,[0.5],"""metal low table""","""metal alçak masa""",7912,58,,[],21,Yes,Size bir tavsiyem (for future studies); deney uzundu ve control amacli soru sormadiniz. Bu size dezavantaj yapar... ,2,1,Female,Hollandaca,Chrome,Windows,720,1280,22.074983333333332,
971,condition1,dry,red,shorts_dry_red,"""dry red shorts""","""kuru kırmızı şort""",shorts,[0.97],"""red dry shorts""","""kırmızı kuru şort""",7908,59,,[],21,Yes,Size bir tavsiyem (for future studies); deney uzundu ve control amacli soru sormadiniz. Bu size dezavantaj yapar... ,2,1,Female,Hollandaca,Chrome,Windows,720,1280,22.074983333333332,
971,condition1,short,black,pencil_short_black,"""black short pencil""","""siyah kısa kalem""",pencil,[0.02],"""short black pencil""","""kısa siyah kalem""",21947,60,,[],21,Yes,Size bir tavsiyem (for future studies); deney uzundu ve control amacli soru sormadiniz. Bu size dezavantaj yapar... ,2,1,Female,Hollandaca,Chrome,Windows,720,1280,22.074983333333332,
971,condition1,young,clean-shaven,man_young_cleanshaven,"""clean-shaven young man""","""sakalsız genç adam""",man,[0.31],"""young clean-shaven man""","""genç sakalsız adam""",5755,61,,[],21,Yes,Size bir tavsiyem (for future studies); deney uzundu ve control amacli soru sormadiniz. Bu size dezavantaj yapar... ,2,1,Female,Hollandaca,Chrome,Windows,720,1280,22.074983333333332,
971,condition1,colored,square,picture_colored_square,"""colored square picture""","""renkli kare resim""",picture,[0.17],"""square colored picture""","""kare renkli resim""",3693,62,,[],21,Yes,Size bir tavsiyem (for future studies); deney uzundu ve control amacli soru sormadiniz. Bu size dezavantaj yapar... ,2,1,Female,Hollandaca,Chrome,Windows,720,1280,22.074983333333332,
936,condition1,,,,,,beyaz,beyaz,,,0,1,bot_check,[],20,Yes,Deney kafa karitiriciydi. Daha net oluna bilirdi,1,0,Female,Azerice,Chrome,Windows,768,1366,3.0600833333333335,
936,condition1,wet,red,shorts_wet_red,"""red wet shorts""","""kırmızı ıslak şort""",shorts,[0.74],"""wet red shorts""","""ıslak kırmızı şort""",9675,3,,[],20,Yes,Deney kafa karitiriciydi. Daha net oluna bilirdi,1,0,Female,Azerice,Chrome,Windows,768,1366,3.0600833333333335,
936,condition1,bearded,hat-wearing,man2_bearded_hatted,"""bearded hat-wearing man""","""sakallı şapkalı adam""",man,[0.64],"""hat-wearing bearded man""","""şapkalı sakallı adam""",5736,4,,[],20,Yes,Deney kafa karitiriciydi. Daha net oluna bilirdi,1,0,Female,Azerice,Chrome,Windows,768,1366,3.0600833333333335,
936,condition1,spotted,green,frog_spotted_green,"""spotted green frog""","""benekli yeşil kurbağa""",frog,[0.48],"""green spotted frog""","""yeşil benekli kurbağa""",1834,5,,[],20,Yes,Deney kafa karitiriciydi. Daha net oluna bilirdi,1,0,Female,Azerice,Chrome,Windows,768,1366,3.0600833333333335,
936,condition1,happy,skinny,woman2_happy_skinny,"""skinny happy woman""","""zayıf mutlu kadın""",woman,[0.57],"""happy skinny woman""","""mutlu zayıf kadın""",1535,6,,[],20,Yes,Deney kafa karitiriciydi. Daha net oluna bilirdi,1,0,Female,Azerice,Chrome,Windows,768,1366,3.0600833333333335,
936,condition1,red,glossy,nails_red_glossy,"""red glossy nails""","""kırmızı parlak oje""",nails,[0.42],"""glossy red nails""","""parlak kırmızı oje""",1355,7,,[],20,Yes,Deney kafa karitiriciydi. Daha net oluna bilirdi,1,0,Female,Azerice,Chrome,Windows,768,1366,3.0600833333333335,
936,condition1,old,happy,woman_old_happy,"""old happy woman""","""yaşlı mutlu kadın""",woman,[0.53],"""happy old woman""","""mutlu yaşlı kadın""",1395,8,,[],20,Yes,Deney kafa karitiriciydi. Daha net oluna bilirdi,1,0,Female,Azerice,Chrome,Windows,768,1366,3.0600833333333335,
936,condition1,wooden,high,table_wood_high,"""high wooden table""","""yüksek tahta masa""",table,[0.43],"""wooden high table""","""tahta yüksek masa""",1439,9,,[],20,Yes,Deney kafa karitiriciydi. Daha net oluna bilirdi,1,0,Female,Azerice,Chrome,Windows,768,1366,3.0600833333333335,
936,condition1,colored,square,picture_colored_square,"""square colored picture""","""kare renkli resim""",picture,[0.47],"""colored square picture""","""renkli kare resim""",2417,10,,[],20,Yes,Deney kafa karitiriciydi. Daha net oluna bilirdi,1,0,Female,Azerice,Chrome,Windows,768,1366,3.0600833333333335,
936,condition1,glass,small,bottle_glass_small,"""small glass bottle""","""küçük cam şişe""",bottle,[0.51],"""glass small bottle""","""cam küçük şişe""",3150,11,,[],20,Yes,Deney kafa karitiriciydi. Daha net oluna bilirdi,1,0,Female,Azerice,Chrome,Windows,768,1366,3.0600833333333335,
936,condition1,straight,blond,hair_straight_blonde,"""straight blond hair""","""düz sarı saç""",hair,[0.42],"""blond straight hair""","""sarı düz saç""",2121,12,,[],20,Yes,Deney kafa karitiriciydi. Daha net oluna bilirdi,1,0,Female,Azerice,Chrome,Windows,768,1366,3.0600833333333335,
936,condition1,closed,wooden,box_closed_wood,"""wooden closed box""","""tahta kapalı kutu""",box,[0.51],"""closed wooden box""","""kapalı tahta kutu""",1318,13,,[],20,Yes,Deney kafa karitiriciydi. Daha net oluna bilirdi,1,0,Female,Azerice,Chrome,Windows,768,1366,3.0600833333333335,
936,condition1,metal,low,table_metal_low,"""metal low table""","""metal alçak masa""",table,[0.5],"""low metal table""","""alçak metal masa""",1446,14,,[],20,Yes,Deney kafa karitiriciydi. Daha net oluna bilirdi,1,0,Female,Azerice,Chrome,Windows,768,1366,3.0600833333333335,
936,condition1,black and white,rectangular,picture_bw_rectangular,"""rectangular black and white picture""","""dikdörtgen siyah beyaz resim""",picture,[0.58],"""black and white rectangular picture""","""siyah beyaz dikdörtgen resim""",1219,15,,[],20,Yes,Deney kafa karitiriciydi. Daha net oluna bilirdi,1,0,Female,Azerice,Chrome,Windows,768,1366,3.0600833333333335,
936,condition1,dry,green,shorts_dry_green,"""dry green shorts""","""kuru yeşil şort""",shorts,[0.49],"""green dry shorts""","""yeşil kuru şort""",1386,16,,[],20,Yes,Deney kafa karitiriciydi. Daha net oluna bilirdi,1,0,Female,Azerice,Chrome,Windows,768,1366,3.0600833333333335,
936,condition1,sad,fat,woman2_sad_fat,"""sad fat woman""","""mutsuz şişman kadın""",woman,[0.61],"""fat sad woman""","""şişman mutsuz kadın""",4390,17,,[],20,Yes,Deney kafa karitiriciydi. Daha net oluna bilirdi,1,0,Female,Azerice,Chrome,Windows,768,1366,3.0600833333333335,
936,condition1,long,blue,pencil_long_blue,"""blue long pencil""","""mavi uzun kalem""",pencil,[0.63],"""long blue pencil""","""uzun mavi kalem""",1732,18,,[],20,Yes,Deney kafa karitiriciydi. Daha net oluna bilirdi,1,0,Female,Azerice,Chrome,Windows,768,1366,3.0600833333333335,
936,condition1,closed,cardboard,box_closed_cardboard,"""cardboard closed box""","""karton kapalı kutu""",box,[0.58],"""closed cardboard box""","""kapalı karton kutu""",1238,19,,[],20,Yes,Deney kafa karitiriciydi. Daha net oluna bilirdi,1,0,Female,Azerice,Chrome,Windows,768,1366,3.0600833333333335,
936,condition1,wet,green,shorts_wet_green,"""wet green shorts""","""ıslak yeşil şort""",shorts,[0.54],"""green wet shorts""","""yeşil ıslak şort""",2177,20,,[],20,Yes,Deney kafa karitiriciydi. Daha net oluna bilirdi,1,0,Female,Azerice,Chrome,Windows,768,1366,3.0600833333333335,
936,condition1,mustache-touting,hat-wearing,man2_mustached_hatted,"""hat-wearing mustache-touting man""","""şapkalı bıyıklı adam""",man,[0.45],"""mustache-touting hat-wearing man""","""bıyıklı şapkalı adam""",2538,21,,[],20,Yes,Deney kafa karitiriciydi. Daha net oluna bilirdi,1,0,Female,Azerice,Chrome,Windows,768,1366,3.0600833333333335,
936,condition1,striped,green,frog_striped_green,"""striped green frog""","""çizgili yeşil kurbağa""",frog,[0.5],"""green striped frog""","""yeşil çizgili kurbağa""",1614,22,,[],20,Yes,Deney kafa karitiriciydi. Daha net oluna bilirdi,1,0,Female,Azerice,Chrome,Windows,768,1366,3.0600833333333335,
936,condition1,young,sad,woman_young_sad,"""sad young woman""","""mutsuz genç kadın""",woman,[0.46],"""young sad woman""","""genç mutsuz kadın""",3361,23,,[],20,Yes,Deney kafa karitiriciydi. Daha net oluna bilirdi,1,0,Female,Azerice,Chrome,Windows,768,1366,3.0600833333333335,
936,condition1,curly,blond,hair_curly_blonde,"""blond curly hair""","""sarı kıvırcık saç""",hair,[0.56],"""curly blond hair""","""kıvırcık sarı saç""",1266,24,,[],20,Yes,Deney kafa karitiriciydi. Daha net oluna bilirdi,1,0,Female,Azerice,Chrome,Windows,768,1366,3.0600833333333335,
936,condition1,sad,skinny,woman2_sad_skinny,"""skinny sad woman""","""zayıf mutsuz kadın""",woman,[0.43],"""sad skinny woman""","""mutsuz zayıf kadın""",1963,25,,[],20,Yes,Deney kafa karitiriciydi. Daha net oluna bilirdi,1,0,Female,Azerice,Chrome,Windows,768,1366,3.0600833333333335,
936,condition1,old,sad,woman_old_sad,"""old sad woman""","""yaşlı mutsuz kadın""",woman,[0.53],"""sad old woman""","""mutsuz yaşlı kadın""",1307,26,,[],20,Yes,Deney kafa karitiriciydi. Daha net oluna bilirdi,1,0,Female,Azerice,Chrome,Windows,768,1366,3.0600833333333335,
936,condition1,wooden,clean,spoon_wooden_clean,"""clean wooden spoon""","""temiz tahta kaşık""",spoon,[0.46],"""wooden clean spoon""","""tahta temiz kaşık""",1506,27,,[],20,Yes,Deney kafa karitiriciydi. Daha net oluna bilirdi,1,0,Female,Azerice,Chrome,Windows,768,1366,3.0600833333333335,
936,condition1,big,round,earring_big_round,"""round big earring""","""yuvarlak büyük küpe""",earring,[0.59],"""big round earring""","""büyük yuvarlak küpe""",2172,28,,[],20,Yes,Deney kafa karitiriciydi. Daha net oluna bilirdi,1,0,Female,Azerice,Chrome,Windows,768,1366,3.0600833333333335,
936,condition1,small,round,earring_small_round,"""small round earring""","""küçük yuvarlak küpe""",earring,[0.52],"""round small earring""","""yuvarlak küçük küpe""",3356,29,,[],20,Yes,Deney kafa karitiriciydi. Daha net oluna bilirdi,1,0,Female,Azerice,Chrome,Windows,768,1366,3.0600833333333335,
936,condition1,black,glossy,nails_black_glossy,"""glossy black nails""","""parlak siyah oje""",nails,[0.38],"""black glossy nails""","""siyah parlak oje""",1605,30,,[],20,Yes,Deney kafa karitiriciydi. Daha net oluna bilirdi,1,0,Female,Azerice,Chrome,Windows,768,1366,3.0600833333333335,
936,condition1,plastic,small,bottle_plastic_small,"""small plastic bottle""","""küçük plastik şişe""",bottle,[0.6],"""plastic small bottle""","""plastik küçük şişe""",1278,31,,[],20,Yes,Deney kafa karitiriciydi. Daha net oluna bilirdi,1,0,Female,Azerice,Chrome,Windows,768,1366,3.0600833333333335,
936,condition1,old,clean-shaven,man_old_cleanshaven,"""old clean-shaven man""","""yaşlı sakalsız adam""",man,[0.39],"""clean-shaven old man""","""sakalsız yaşlı adam""",2029,32,,[],20,Yes,Deney kafa karitiriciydi. Daha net oluna bilirdi,1,0,Female,Azerice,Chrome,Windows,768,1366,3.0600833333333335,
936,condition1,wooden,dirty,spoon_wooden_dirty,"""wooden dirty spoon""","""tahta kirli kaşık""",spoon,[0.54],"""dirty wooden spoon""","""kirli tahta kaşık""",1121,33,,[],20,Yes,Deney kafa karitiriciydi. Daha net oluna bilirdi,1,0,Female,Azerice,Chrome,Windows,768,1366,3.0600833333333335,
936,condition1,young,clean-shaven,man_young_cleanshaven,"""young clean-shaven man""","""genç sakalsız adam""",man,[0.51],"""clean-shaven young man""","""sakalsız genç adam""",1268,34,,[],20,Yes,Deney kafa karitiriciydi. Daha net oluna bilirdi,1,0,Female,Azerice,Chrome,Windows,768,1366,3.0600833333333335,
936,condition1,wooden,low,table_wood_low,"""wooden low table""","""tahta alçak masa""",table,[0.51],"""low wooden table""","""alçak tahta masa""",1992,35,,[],20,Yes,Deney kafa karitiriciydi. Daha net oluna bilirdi,1,0,Female,Azerice,Chrome,Windows,768,1366,3.0600833333333335,
936,condition1,metal,clean,spoon_metal_clean,"""clean metal spoon""","""temiz metal kaşık""",spoon,[0.64],"""metal clean spoon""","""metal temiz kaşık""",2624,36,,[],20,Yes,Deney kafa karitiriciydi. Daha net oluna bilirdi,1,0,Female,Azerice,Chrome,Windows,768,1366,3.0600833333333335,
936,condition1,colored,rectangular,picture_colored_rectangular,"""colored rectangular picture""","""renkli dikdörtgen resim""",picture,[0.42],"""rectangular colored picture""","""dikdörtgen renkli resim""",1338,37,,[],20,Yes,Deney kafa karitiriciydi. Daha net oluna bilirdi,1,0,Female,Azerice,Chrome,Windows,768,1366,3.0600833333333335,
936,condition1,big,triangular,earring_big_triangular,"""triangular big earring""","""üçgen büyük küpe""",earring,[0.5],"""big triangular earring""","""büyük üçgen küpe""",1515,38,,[],20,Yes,Deney kafa karitiriciydi. Daha net oluna bilirdi,1,0,Female,Azerice,Chrome,Windows,768,1366,3.0600833333333335,
936,condition1,bearded,glasses-wearing,man2_bearded_glassed,"""glasses-wearing bearded man""","""gözlüklü sakallı adam""",man,[0.53],"""bearded glasses-wearing man""","""sakallı gözlüklü adam""",1307,39,,[],20,Yes,Deney kafa karitiriciydi. Daha net oluna bilirdi,1,0,Female,Azerice,Chrome,Windows,768,1366,3.0600833333333335,
936,condition1,metal,high,table_metal_high,"""high metal table""","""yüksek metal masa""",table,[0.44],"""metal high table""","""metal yüksek masa""",1249,40,,[],20,Yes,Deney kafa karitiriciydi. Daha net oluna bilirdi,1,0,Female,Azerice,Chrome,Windows,768,1366,3.0600833333333335,
936,condition1,striped,red,frog_striped_red,"""striped red frog""","""çizgili kırmızı kurbağa""",frog,[0.52],"""red striped frog""","""kırmızı çizgili kurbağa""",1218,41,,[],20,Yes,Deney kafa karitiriciydi. Daha net oluna bilirdi,1,0,Female,Azerice,Chrome,Windows,768,1366,3.0600833333333335,
936,condition1,glass,big,bottle_glass_big,"""glass big bottle""","""cam büyük şişe""",bottle,[0.49],"""big glass bottle""","""büyük cam şişe""",2090,42,,[],20,Yes,Deney kafa karitiriciydi. Daha net oluna bilirdi,1,0,Female,Azerice,Chrome,Windows,768,1366,3.0600833333333335,
936,condition1,plastic,big,bottle_plastic_big,"""plastic big bottle""","""plastik büyük şişe""",bottle,[0.63],"""big plastic bottle""","""büyük plastik şişe""",3093,43,,[],20,Yes,Deney kafa karitiriciydi. Daha net oluna bilirdi,1,0,Female,Azerice,Chrome,Windows,768,1366,3.0600833333333335,
936,condition1,mustache-touting,glasses-wearing,man2_mustached_glassed,"""glasses-wearing mustache-touting man""","""gözlüklü bıyıklı adam""",man,[0.63],"""mustache-touting glasses-wearing man""","""bıyıklı gözlüklü adam""",1881,44,,[],20,Yes,Deney kafa karitiriciydi. Daha net oluna bilirdi,1,0,Female,Azerice,Chrome,Windows,768,1366,3.0600833333333335,
936,condition1,long,black,pencil_long_black,"""long black pencil""","""uzun siyah kalem""",pencil,[0.47],"""black long pencil""","""siyah uzun kalem""",2498,45,,[],20,Yes,Deney kafa karitiriciydi. Daha net oluna bilirdi,1,0,Female,Azerice,Chrome,Windows,768,1366,3.0600833333333335,
936,condition1,curly,brown,hair_curly_brown,"""brown curly hair""","""kahverengi kıvırcık saç""",hair,[0.22],"""curly brown hair""","""kıvırcık kahverengi saç""",3308,46,,[],20,Yes,Deney kafa karitiriciydi. Daha net oluna bilirdi,1,0,Female,Azerice,Chrome,Windows,768,1366,3.0600833333333335,
936,condition1,straight,brown,hair_straight_brown,"""straight brown hair""","""düz kahverengi saç""",hair,[0.57],"""brown straight hair""","""kahverengi düz saç""",3499,47,,[],20,Yes,Deney kafa karitiriciydi. Daha net oluna bilirdi,1,0,Female,Azerice,Chrome,Windows,768,1366,3.0600833333333335,
936,condition1,small,triangular,earring_small_triangular,"""triangular small earring""","""üçgen küçük küpe""",earring,[0.61],"""small triangular earring""","""küçük üçgen küpe""",1495,48,,[],20,Yes,Deney kafa karitiriciydi. Daha net oluna bilirdi,1,0,Female,Azerice,Chrome,Windows,768,1366,3.0600833333333335,
936,condition1,spotted,red,frog_spotted_red,"""spotted red frog""","""benekli kırmızı kurbağa""",frog,[0.51],"""red spotted frog""","""kırmızı benekli kurbağa""",1911,49,,[],20,Yes,Deney kafa karitiriciydi. Daha net oluna bilirdi,1,0,Female,Azerice,Chrome,Windows,768,1366,3.0600833333333335,
936,condition1,dry,red,shorts_dry_red,"""dry red shorts""","""kuru kırmızı şort""",shorts,[0.34],"""red dry shorts""","""kırmızı kuru şort""",3240,50,,[],20,Yes,Deney kafa karitiriciydi. Daha net oluna bilirdi,1,0,Female,Azerice,Chrome,Windows,768,1366,3.0600833333333335,
936,condition1,red,matte,nails_red_matte,"""red matte nails""","""kırmızı mat oje""",nails,[0.58],"""matte red nails""","""mat kırmızı oje""",3379,51,,[],20,Yes,Deney kafa karitiriciydi. Daha net oluna bilirdi,1,0,Female,Azerice,Chrome,Windows,768,1366,3.0600833333333335,
936,condition1,black and white,square,picture_bw_square,"""square black and white picture""","""kare siyah beyaz resim""",picture,[0.55],"""black and white square picture""","""siyah beyaz kare resim""",2070,52,,[],20,Yes,Deney kafa karitiriciydi. Daha net oluna bilirdi,1,0,Female,Azerice,Chrome,Windows,768,1366,3.0600833333333335,
936,condition1,short,black,pencil_short_black,"""black short pencil""","""siyah kısa kalem""",pencil,[0.44],"""short black pencil""","""kısa siyah kalem""",1209,53,,[],20,Yes,Deney kafa karitiriciydi. Daha net oluna bilirdi,1,0,Female,Azerice,Chrome,Windows,768,1366,3.0600833333333335,
936,condition1,happy,fat,woman2_happy_fat,"""fat happy woman""","""şişman mutlu kadın""",woman,[0.61],"""happy fat woman""","""mutlu şişman kadın""",1636,54,,[],20,Yes,Deney kafa karitiriciydi. Daha net oluna bilirdi,1,0,Female,Azerice,Chrome,Windows,768,1366,3.0600833333333335,
936,condition1,open,cardboard,box_open_cardboard,"""open cardboard box""","""açık karton kutu""",box,[0.43],"""cardboard open box""","""karton açık kutu""",1534,55,,[],20,Yes,Deney kafa karitiriciydi. Daha net oluna bilirdi,1,0,Female,Azerice,Chrome,Windows,768,1366,3.0600833333333335,
936,condition1,open,wooden,box_open_wood,"""open wooden box""","""açık tahta kutu""",box,[0.6],"""wooden open box""","""tahta açık kutu""",1842,56,,[],20,Yes,Deney kafa karitiriciydi. Daha net oluna bilirdi,1,0,Female,Azerice,Chrome,Windows,768,1366,3.0600833333333335,
936,condition1,black,matte,nails_black_matte,"""matte black nails""","""mat siyah oje""",nails,[0.57],"""black matte nails""","""siyah mat oje""",3366,57,,[],20,Yes,Deney kafa karitiriciydi. Daha net oluna bilirdi,1,0,Female,Azerice,Chrome,Windows,768,1366,3.0600833333333335,
936,condition1,young,happy,woman_young_happy,"""young happy woman""","""genç mutlu kadın""",woman,[0.68],"""happy young woman""","""mutlu genç kadın""",1306,58,,[],20,Yes,Deney kafa karitiriciydi. Daha net oluna bilirdi,1,0,Female,Azerice,Chrome,Windows,768,1366,3.0600833333333335,
936,condition1,young,bearded,man_young_bearded,"""bearded young man""","""sakallı genç adam""",man,[0.51],"""young bearded man""","""genç sakallı adam""",1260,59,,[],20,Yes,Deney kafa karitiriciydi. Daha net oluna bilirdi,1,0,Female,Azerice,Chrome,Windows,768,1366,3.0600833333333335,
936,condition1,old,bearded,man_old_bearded,"""old bearded man""","""yaşlı sakallı adam""",man,[0.53],"""bearded old man""","""sakallı yaşlı adam""",4210,60,,[],20,Yes,Deney kafa karitiriciydi. Daha net oluna bilirdi,1,0,Female,Azerice,Chrome,Windows,768,1366,3.0600833333333335,
936,condition1,short,blue,pencil_short_blue,"""short blue pencil""","""kısa mavi kalem""",pencil,[0.42],"""blue short pencil""","""mavi kısa kalem""",1594,61,,[],20,Yes,Deney kafa karitiriciydi. Daha net oluna bilirdi,1,0,Female,Azerice,Chrome,Windows,768,1366,3.0600833333333335,
936,condition1,metal,dirty,spoon_metal_dirty,"""dirty metal spoon""","""kirli metal kaşık""",spoon,[0.52],"""metal dirty spoon""","""metal kirli kaşık""",1436,62,,[],20,Yes,Deney kafa karitiriciydi. Daha net oluna bilirdi,1,0,Female,Azerice,Chrome,Windows,768,1366,3.0600833333333335,
955,condition1,,,,,,beyaz,Beyaz,,,0,1,bot_check,[],24,Yes,,3,1,Male,Türkçe,Chrome,Mac,800,1280,3.6483833333333338,
955,condition1,plastic,big,bottle_plastic_big,"""big plastic bottle""","""büyük plastik şişe""",bottle,[0.19],"""plastic big bottle""","""plastik büyük şişe""",4157,3,,[],24,Yes,,3,1,Male,Türkçe,Chrome,Mac,800,1280,3.6483833333333338,
955,condition1,wet,red,shorts_wet_red,"""wet red shorts""","""ıslak kırmızı şort""",shorts,[0.87],"""red wet shorts""","""kırmızı ıslak şort""",3539,4,,[],24,Yes,,3,1,Male,Türkçe,Chrome,Mac,800,1280,3.6483833333333338,
955,condition1,young,sad,woman_young_sad,"""young sad woman""","""genç mutsuz kadın""",woman,[0.79],"""sad young woman""","""mutsuz genç kadın""",4034,5,,[],24,Yes,,3,1,Male,Türkçe,Chrome,Mac,800,1280,3.6483833333333338,
955,condition1,straight,blond,hair_straight_blonde,"""blond straight hair""","""sarı düz saç""",hair,[0.74],"""straight blond hair""","""düz sarı saç""",2454,6,,[],24,Yes,,3,1,Male,Türkçe,Chrome,Mac,800,1280,3.6483833333333338,
955,condition1,glass,small,bottle_glass_small,"""glass small bottle""","""cam küçük şişe""",bottle,[0.82],"""small glass bottle""","""küçük cam şişe""",2707,7,,[],24,Yes,,3,1,Male,Türkçe,Chrome,Mac,800,1280,3.6483833333333338,
955,condition1,young,bearded,man_young_bearded,"""young bearded man""","""genç sakallı adam""",man,[0.8],"""bearded young man""","""sakallı genç adam""",2185,8,,[],24,Yes,,3,1,Male,Türkçe,Chrome,Mac,800,1280,3.6483833333333338,
955,condition1,curly,blond,hair_curly_blonde,"""blond curly hair""","""sarı kıvırcık saç""",hair,[0.16],"""curly blond hair""","""kıvırcık sarı saç""",3290,9,,[],24,Yes,,3,1,Male,Türkçe,Chrome,Mac,800,1280,3.6483833333333338,
955,condition1,long,black,pencil_long_black,"""long black pencil""","""uzun siyah kalem""",pencil,[0.79],"""black long pencil""","""siyah uzun kalem""",3237,10,,[],24,Yes,,3,1,Male,Türkçe,Chrome,Mac,800,1280,3.6483833333333338,
955,condition1,straight,brown,hair_straight_brown,"""brown straight hair""","""kahverengi düz saç""",hair,[0.14],"""straight brown hair""","""düz kahverengi saç""",4230,11,,[],24,Yes,,3,1,Male,Türkçe,Chrome,Mac,800,1280,3.6483833333333338,
955,condition1,glass,big,bottle_glass_big,"""big glass bottle""","""büyük cam şişe""",bottle,[0.1],"""glass big bottle""","""cam büyük şişe""",5953,12,,[],24,Yes,,3,1,Male,Türkçe,Chrome,Mac,800,1280,3.6483833333333338,
955,condition1,closed,wooden,box_closed_wood,"""wooden closed box""","""tahta kapalı kutu""",box,[0.11],"""closed wooden box""","""kapalı tahta kutu""",3764,13,,[],24,Yes,,3,1,Male,Türkçe,Chrome,Mac,800,1280,3.6483833333333338,
955,condition1,black,matte,nails_black_matte,"""matte black nails""","""mat siyah oje""",nails,[0.16],"""black matte nails""","""siyah mat oje""",4403,14,,[],24,Yes,,3,1,Male,Türkçe,Chrome,Mac,800,1280,3.6483833333333338,
955,condition1,old,sad,woman_old_sad,"""old sad woman""","""yaşlı mutsuz kadın""",woman,[0.83],"""sad old woman""","""mutsuz yaşlı kadın""",3229,15,,[],24,Yes,,3,1,Male,Türkçe,Chrome,Mac,800,1280,3.6483833333333338,
955,condition1,plastic,small,bottle_plastic_small,"""small plastic bottle""","""küçük plastik şişe""",bottle,[0.77],"""plastic small bottle""","""plastik küçük şişe""",2542,16,,[],24,Yes,,3,1,Male,Türkçe,Chrome,Mac,800,1280,3.6483833333333338,
955,condition1,sad,skinny,woman2_sad_skinny,"""sad skinny woman""","""mutsuz zayıf kadın""",woman,[0.07],"""skinny sad woman""","""zayıf mutsuz kadın""",3468,17,,[],24,Yes,,3,1,Male,Türkçe,Chrome,Mac,800,1280,3.6483833333333338,
955,condition1,old,bearded,man_old_bearded,"""bearded old man""","""sakallı yaşlı adam""",man,[0.06],"""old bearded man""","""yaşlı sakallı adam""",2642,18,,[],24,Yes,,3,1,Male,Türkçe,Chrome,Mac,800,1280,3.6483833333333338,
955,condition1,striped,red,frog_striped_red,"""striped red frog""","""çizgili kırmızı kurbağa""",frog,[0.87],"""red striped frog""","""kırmızı çizgili kurbağa""",3322,19,,[],24,Yes,,3,1,Male,Türkçe,Chrome,Mac,800,1280,3.6483833333333338,
955,condition1,short,blue,pencil_short_blue,"""blue short pencil""","""mavi kısa kalem""",pencil,[0.11],"""short blue pencil""","""kısa mavi kalem""",2233,20,,[],24,Yes,,3,1,Male,Türkçe,Chrome,Mac,800,1280,3.6483833333333338,
955,condition1,red,matte,nails_red_matte,"""red matte nails""","""kırmızı mat oje""",nails,[0.78],"""matte red nails""","""mat kırmızı oje""",2784,21,,[],24,Yes,,3,1,Male,Türkçe,Chrome,Mac,800,1280,3.6483833333333338,
955,condition1,small,round,earring_small_round,"""round small earring""","""yuvarlak küçük küpe""",earring,[0.17],"""small round earring""","""küçük yuvarlak küpe""",4287,22,,[],24,Yes,,3,1,Male,Türkçe,Chrome,Mac,800,1280,3.6483833333333338,
955,condition1,sad,fat,woman2_sad_fat,"""sad fat woman""","""mutsuz şişman kadın""",woman,[0.08],"""fat sad woman""","""şişman mutsuz kadın""",5370,23,,[],24,Yes,,3,1,Male,Türkçe,Chrome,Mac,800,1280,3.6483833333333338,
955,condition1,mustache-touting,hat-wearing,man2_mustached_hatted,"""hat-wearing mustache-touting man""","""şapkalı bıyıklı adam""",man,[0.92],"""mustache-touting hat-wearing man""","""bıyıklı şapkalı adam""",2800,24,,[],24,Yes,,3,1,Male,Türkçe,Chrome,Mac,800,1280,3.6483833333333338,
955,condition1,spotted,red,frog_spotted_red,"""red spotted frog""","""kırmızı benekli kurbağa""",frog,[0.11],"""spotted red frog""","""benekli kırmızı kurbağa""",2981,25,,[],24,Yes,,3,1,Male,Türkçe,Chrome,Mac,800,1280,3.6483833333333338,
955,condition1,striped,green,frog_striped_green,"""green striped frog""","""yeşil çizgili kurbağa""",frog,[0.84],"""striped green frog""","""çizgili yeşil kurbağa""",2527,26,,[],24,Yes,,3,1,Male,Türkçe,Chrome,Mac,800,1280,3.6483833333333338,
955,condition1,old,happy,woman_old_happy,"""old happy woman""","""yaşlı mutlu kadın""",woman,[0.8],"""happy old woman""","""mutlu yaşlı kadın""",3631,27,,[],24,Yes,,3,1,Male,Türkçe,Chrome,Mac,800,1280,3.6483833333333338,
955,condition1,bearded,glasses-wearing,man2_bearded_glassed,"""glasses-wearing bearded man""","""gözlüklü sakallı adam""",man,[0.86],"""bearded glasses-wearing man""","""sakallı gözlüklü adam""",5972,28,,[],24,Yes,,3,1,Male,Türkçe,Chrome,Mac,800,1280,3.6483833333333338,
955,condition1,old,clean-shaven,man_old_cleanshaven,"""old clean-shaven man""","""yaşlı sakalsız adam""",man,[0.86],"""clean-shaven old man""","""sakalsız yaşlı adam""",3459,29,,[],24,Yes,,3,1,Male,Türkçe,Chrome,Mac,800,1280,3.6483833333333338,
955,condition1,black and white,rectangular,picture_bw_rectangular,"""rectangular black and white picture""","""dikdörtgen siyah beyaz resim""",picture,[0.71],"""black and white rectangular picture""","""siyah beyaz dikdörtgen resim""",4245,30,,[],24,Yes,,3,1,Male,Türkçe,Chrome,Mac,800,1280,3.6483833333333338,
955,condition1,dry,green,shorts_dry_green,"""dry green shorts""","""kuru yeşil şort""",shorts,[0.15],"""green dry shorts""","""yeşil kuru şort""",3390,31,,[],24,Yes,,3,1,Male,Türkçe,Chrome,Mac,800,1280,3.6483833333333338,
955,condition1,black and white,square,picture_bw_square,"""black and white square picture""","""siyah beyaz kare resim""",picture,[0.06],"""square black and white picture""","""kare siyah beyaz resim""",3546,32,,[],24,Yes,,3,1,Male,Türkçe,Chrome,Mac,800,1280,3.6483833333333338,
955,condition1,big,round,earring_big_round,"""big round earring""","""büyük yuvarlak küpe""",earring,[0.09],"""round big earring""","""yuvarlak büyük küpe""",5444,33,,[],24,Yes,,3,1,Male,Türkçe,Chrome,Mac,800,1280,3.6483833333333338,
955,condition1,wooden,low,table_wood_low,"""wooden low table""","""tahta alçak masa""",table,[0.8],"""low wooden table""","""alçak tahta masa""",2237,34,,[],24,Yes,,3,1,Male,Türkçe,Chrome,Mac,800,1280,3.6483833333333338,
955,condition1,long,blue,pencil_long_blue,"""blue long pencil""","""mavi uzun kalem""",pencil,[0.82],"""long blue pencil""","""uzun mavi kalem""",3574,35,,[],24,Yes,,3,1,Male,Türkçe,Chrome,Mac,800,1280,3.6483833333333338,
955,condition1,wooden,clean,spoon_wooden_clean,"""wooden clean spoon""","""tahta temiz kaşık""",spoon,[0.71],"""clean wooden spoon""","""temiz tahta kaşık""",3249,36,,[],24,Yes,,3,1,Male,Türkçe,Chrome,Mac,800,1280,3.6483833333333338,
955,condition1,metal,clean,spoon_metal_clean,"""metal clean spoon""","""metal temiz kaşık""",spoon,[0.93],"""clean metal spoon""","""temiz metal kaşık""",3896,37,,[],24,Yes,,3,1,Male,Türkçe,Chrome,Mac,800,1280,3.6483833333333338,
955,condition1,metal,high,table_metal_high,"""high metal table""","""yüksek metal masa""",table,[0.12],"""metal high table""","""metal yüksek masa""",3695,38,,[],24,Yes,,3,1,Male,Türkçe,Chrome,Mac,800,1280,3.6483833333333338,
955,condition1,dry,red,shorts_dry_red,"""dry red shorts""","""kuru kırmızı şort""",shorts,[0.85],"""red dry shorts""","""kırmızı kuru şort""",2358,39,,[],24,Yes,,3,1,Male,Türkçe,Chrome,Mac,800,1280,3.6483833333333338,
955,condition1,curly,brown,hair_curly_brown,"""curly brown hair""","""kıvırcık kahverengi saç""",hair,[0.96],"""brown curly hair""","""kahverengi kıvırcık saç""",3085,40,,[],24,Yes,,3,1,Male,Türkçe,Chrome,Mac,800,1280,3.6483833333333338,
955,condition1,open,cardboard,box_open_cardboard,"""open cardboard box""","""açık karton kutu""",box,[0.03],"""cardboard open box""","""karton açık kutu""",4342,41,,[],24,Yes,,3,1,Male,Türkçe,Chrome,Mac,800,1280,3.6483833333333338,
955,condition1,open,wooden,box_open_wood,"""wooden open box""","""tahta açık kutu""",box,[0.87],"""open wooden box""","""açık tahta kutu""",3346,42,,[],24,Yes,,3,1,Male,Türkçe,Chrome,Mac,800,1280,3.6483833333333338,
955,condition1,small,triangular,earring_small_triangular,"""triangular small earring""","""üçgen küçük küpe""",earring,[0.81],"""small triangular earring""","""küçük üçgen küpe""",2273,43,,[],24,Yes,,3,1,Male,Türkçe,Chrome,Mac,800,1280,3.6483833333333338,
955,condition1,black,glossy,nails_black_glossy,"""black glossy nails""","""siyah parlak oje""",nails,[0.2],"""glossy black nails""","""parlak siyah oje""",4608,44,,[],24,Yes,,3,1,Male,Türkçe,Chrome,Mac,800,1280,3.6483833333333338,
955,condition1,mustache-touting,glasses-wearing,man2_mustached_glassed,"""mustache-touting glasses-wearing man""","""bıyıklı gözlüklü adam""",man,[0.91],"""glasses-wearing mustache-touting man""","""gözlüklü bıyıklı adam""",2960,45,,[],24,Yes,,3,1,Male,Türkçe,Chrome,Mac,800,1280,3.6483833333333338,
955,condition1,metal,dirty,spoon_metal_dirty,"""dirty metal spoon""","""kirli metal kaşık""",spoon,[0.76],"""metal dirty spoon""","""metal kirli kaşık""",2998,46,,[],24,Yes,,3,1,Male,Türkçe,Chrome,Mac,800,1280,3.6483833333333338,
955,condition1,bearded,hat-wearing,man2_bearded_hatted,"""bearded hat-wearing man""","""sakallı şapkalı adam""",man,[0.89],"""hat-wearing bearded man""","""şapkalı sakallı adam""",3714,47,,[],24,Yes,,3,1,Male,Türkçe,Chrome,Mac,800,1280,3.6483833333333338,
955,condition1,young,happy,woman_young_happy,"""young happy woman""","""genç mutlu kadın""",woman,[0.09],"""happy young woman""","""mutlu genç kadın""",3536,48,,[],24,Yes,,3,1,Male,Türkçe,Chrome,Mac,800,1280,3.6483833333333338,
955,condition1,short,black,pencil_short_black,"""black short pencil""","""siyah kısa kalem""",pencil,[0.9],"""short black pencil""","""kısa siyah kalem""",3417,49,,[],24,Yes,,3,1,Male,Türkçe,Chrome,Mac,800,1280,3.6483833333333338,
955,condition1,young,clean-shaven,man_young_cleanshaven,"""clean-shaven young man""","""sakalsız genç adam""",man,[0.04],"""young clean-shaven man""","""genç sakalsız adam""",2579,50,,[],24,Yes,,3,1,Male,Türkçe,Chrome,Mac,800,1280,3.6483833333333338,
955,condition1,metal,low,table_metal_low,"""metal low table""","""metal alçak masa""",table,[0.78],"""low metal table""","""alçak metal masa""",2101,51,,[],24,Yes,,3,1,Male,Türkçe,Chrome,Mac,800,1280,3.6483833333333338,
955,condition1,colored,rectangular,picture_colored_rectangular,"""rectangular colored picture""","""dikdörtgen renkli resim""",picture,[0.1],"""colored rectangular picture""","""renkli dikdörtgen resim""",5905,52,,[],24,Yes,,3,1,Male,Türkçe,Chrome,Mac,800,1280,3.6483833333333338,
955,condition1,red,glossy,nails_red_glossy,"""glossy red nails""","""parlak kırmızı oje""",nails,[0.04],"""red glossy nails""","""kırmızı parlak oje""",2133,53,,[],24,Yes,,3,1,Male,Türkçe,Chrome,Mac,800,1280,3.6483833333333338,
955,condition1,wet,green,shorts_wet_green,"""wet green shorts""","""ıslak yeşil şort""",shorts,[0.74],"""green wet shorts""","""yeşil ıslak şort""",2161,54,,[],24,Yes,,3,1,Male,Türkçe,Chrome,Mac,800,1280,3.6483833333333338,
955,condition1,big,triangular,earring_big_triangular,"""triangular big earring""","""üçgen büyük küpe""",earring,[0.82],"""big triangular earring""","""büyük üçgen küpe""",1985,55,,[],24,Yes,,3,1,Male,Türkçe,Chrome,Mac,800,1280,3.6483833333333338,
955,condition1,wooden,high,table_wood_high,"""high wooden table""","""yüksek tahta masa""",table,[0.93],"""wooden high table""","""tahta yüksek masa""",3784,56,,[],24,Yes,,3,1,Male,Türkçe,Chrome,Mac,800,1280,3.6483833333333338,
955,condition1,wooden,dirty,spoon_wooden_dirty,"""wooden dirty spoon""","""tahta kirli kaşık""",spoon,[0.82],"""dirty wooden spoon""","""kirli tahta kaşık""",2816,57,,[],24,Yes,,3,1,Male,Türkçe,Chrome,Mac,800,1280,3.6483833333333338,
955,condition1,happy,skinny,woman2_happy_skinny,"""skinny happy woman""","""zayıf mutlu kadın""",woman,[0.92],"""happy skinny woman""","""mutlu zayıf kadın""",1992,58,,[],24,Yes,,3,1,Male,Türkçe,Chrome,Mac,800,1280,3.6483833333333338,
955,condition1,happy,fat,woman2_happy_fat,"""fat happy woman""","""şişman mutlu kadın""",woman,[0.78],"""happy fat woman""","""mutlu şişman kadın""",2430,59,,[],24,Yes,,3,1,Male,Türkçe,Chrome,Mac,800,1280,3.6483833333333338,
955,condition1,colored,square,picture_colored_square,"""square colored picture""","""kare renkli resim""",picture,[0.78],"""colored square picture""","""renkli kare resim""",1985,60,,[],24,Yes,,3,1,Male,Türkçe,Chrome,Mac,800,1280,3.6483833333333338,
955,condition1,spotted,green,frog_spotted_green,"""spotted green frog""","""benekli yeşil kurbağa""",frog,[0.87],"""green spotted frog""","""yeşil benekli kurbağa""",1976,61,,[],24,Yes,,3,1,Male,Türkçe,Chrome,Mac,800,1280,3.6483833333333338,
955,condition1,closed,cardboard,box_closed_cardboard,"""closed cardboard box""","""kapalı karton kutu""",box,[0.86],"""cardboard closed box""","""karton kapalı kutu""",2193,62,,[],24,Yes,,3,1,Male,Türkçe,Chrome,Mac,800,1280,3.6483833333333338,
951,condition1,,,,,,beyaz,beyaz,,,0,1,bot_check,[],33,Yes,,3,1,Female,Turkce,Chrome,Linux,864,1536,9.3492,
951,condition1,wooden,clean,spoon_wooden_clean,"""wooden clean spoon""","""tahta temiz kaşık""",spoon,[0.98],"""clean wooden spoon""","""temiz tahta kaşık""",9524,3,,[],33,Yes,,3,1,Female,Turkce,Chrome,Linux,864,1536,9.3492,
951,condition1,metal,high,table_metal_high,"""metal high table""","""metal yüksek masa""",table,[0.99],"""high metal table""","""yüksek metal masa""",7235,4,,[],33,Yes,,3,1,Female,Turkce,Chrome,Linux,864,1536,9.3492,
951,condition1,wooden,low,table_wood_low,"""low wooden table""","""alçak tahta masa""",table,[0.01],"""wooden low table""","""tahta alçak masa""",4625,5,,[],33,Yes,,3,1,Female,Turkce,Chrome,Linux,864,1536,9.3492,
951,condition1,dry,green,shorts_dry_green,"""dry green shorts""","""kuru yeşil şort""",shorts,[0.02],"""green dry shorts""","""yeşil kuru şort""",13741,6,,[],33,Yes,,3,1,Female,Turkce,Chrome,Linux,864,1536,9.3492,
951,condition1,curly,blond,hair_curly_blonde,"""blond curly hair""","""sarı kıvırcık saç""",hair,[0.97],"""curly blond hair""","""kıvırcık sarı saç""",7110,7,,[],33,Yes,,3,1,Female,Turkce,Chrome,Linux,864,1536,9.3492,
951,condition1,long,black,pencil_long_black,"""black long pencil""","""siyah uzun kalem""",pencil,[0.98],"""long black pencil""","""uzun siyah kalem""",4108,8,,[],33,Yes,,3,1,Female,Turkce,Chrome,Linux,864,1536,9.3492,
951,condition1,young,bearded,man_young_bearded,"""young bearded man""","""genç sakallı adam""",man,[0.98],"""bearded young man""","""sakallı genç adam""",5450,9,,[],33,Yes,,3,1,Female,Turkce,Chrome,Linux,864,1536,9.3492,
951,condition1,big,triangular,earring_big_triangular,"""triangular big earring""","""üçgen büyük küpe""",earring,[0.98],"""big triangular earring""","""büyük üçgen küpe""",6374,10,,[],33,Yes,,3,1,Female,Turkce,Chrome,Linux,864,1536,9.3492,
951,condition1,old,clean-shaven,man_old_cleanshaven,"""clean-shaven old man""","""sakalsız yaşlı adam""",man,[0],"""old clean-shaven man""","""yaşlı sakalsız adam""",8822,11,,[],33,Yes,,3,1,Female,Turkce,Chrome,Linux,864,1536,9.3492,
951,condition1,short,black,pencil_short_black,"""short black pencil""","""kısa siyah kalem""",pencil,[0.97],"""black short pencil""","""siyah kısa kalem""",8857,12,,[],33,Yes,,3,1,Female,Turkce,Chrome,Linux,864,1536,9.3492,
951,condition1,bearded,hat-wearing,man2_bearded_hatted,"""bearded hat-wearing man""","""sakallı şapkalı adam""",man,[0.97],"""hat-wearing bearded man""","""şapkalı sakallı adam""",6033,13,,[],33,Yes,,3,1,Female,Turkce,Chrome,Linux,864,1536,9.3492,
951,condition1,bearded,glasses-wearing,man2_bearded_glassed,"""glasses-wearing bearded man""","""gözlüklü sakallı adam""",man,[0.99],"""bearded glasses-wearing man""","""sakallı gözlüklü adam""",19258,14,,[],33,Yes,,3,1,Female,Turkce,Chrome,Linux,864,1536,9.3492,
951,condition1,metal,clean,spoon_metal_clean,"""metal clean spoon""","""metal temiz kaşık""",spoon,[0.98],"""clean metal spoon""","""temiz metal kaşık""",5148,15,,[],33,Yes,,3,1,Female,Turkce,Chrome,Linux,864,1536,9.3492,
951,condition1,closed,wooden,box_closed_wood,"""wooden closed box""","""tahta kapalı kutu""",box,[0.99],"""closed wooden box""","""kapalı tahta kutu""",8484,16,,[],33,Yes,,3,1,Female,Turkce,Chrome,Linux,864,1536,9.3492,
951,condition1,sad,skinny,woman2_sad_skinny,"""skinny sad woman""","""zayıf mutsuz kadın""",woman,[0.97],"""sad skinny woman""","""mutsuz zayıf kadın""",7432,17,,[],33,Yes,,3,1,Female,Turkce,Chrome,Linux,864,1536,9.3492,
951,condition1,colored,rectangular,picture_colored_rectangular,"""rectangular colored picture""","""dikdörtgen renkli resim""",picture,[0.98],"""colored rectangular picture""","""renkli dikdörtgen resim""",5467,18,,[],33,Yes,,3,1,Female,Turkce,Chrome,Linux,864,1536,9.3492,
951,condition1,straight,blond,hair_straight_blonde,"""blond straight hair""","""sarı düz saç""",hair,[0.98],"""straight blond hair""","""düz sarı saç""",5652,19,,[],33,Yes,,3,1,Female,Turkce,Chrome,Linux,864,1536,9.3492,
951,condition1,old,bearded,man_old_bearded,"""old bearded man""","""yaşlı sakallı adam""",man,[0.97],"""bearded old man""","""sakallı yaşlı adam""",4053,20,,[],33,Yes,,3,1,Female,Turkce,Chrome,Linux,864,1536,9.3492,
951,condition1,black and white,square,picture_bw_square,"""square black and white picture""","""kare siyah beyaz resim""",picture,[0.98],"""black and white square picture""","""siyah beyaz kare resim""",6207,21,,[],33,Yes,,3,1,Female,Turkce,Chrome,Linux,864,1536,9.3492,
951,condition1,mustache-touting,glasses-wearing,man2_mustached_glassed,"""mustache-touting glasses-wearing man""","""bıyıklı gözlüklü adam""",man,[0.97],"""glasses-wearing mustache-touting man""","""gözlüklü bıyıklı adam""",7454,22,,[],33,Yes,,3,1,Female,Turkce,Chrome,Linux,864,1536,9.3492,
951,condition1,old,sad,woman_old_sad,"""old sad woman""","""yaşlı mutsuz kadın""",woman,[0.98],"""sad old woman""","""mutsuz yaşlı kadın""",5541,23,,[],33,Yes,,3,1,Female,Turkce,Chrome,Linux,864,1536,9.3492,
951,condition1,open,wooden,box_open_wood,"""wooden open box""","""tahta açık kutu""",box,[0.99],"""open wooden box""","""açık tahta kutu""",4613,24,,[],33,Yes,,3,1,Female,Turkce,Chrome,Linux,864,1536,9.3492,
951,condition1,wooden,dirty,spoon_wooden_dirty,"""wooden dirty spoon""","""tahta kirli kaşık""",spoon,[0.98],"""dirty wooden spoon""","""kirli tahta kaşık""",4056,25,,[],33,Yes,,3,1,Female,Turkce,Chrome,Linux,864,1536,9.3492,
951,condition1,wet,red,shorts_wet_red,"""wet red shorts""","""ıslak kırmızı şort""",shorts,[0.98],"""red wet shorts""","""kırmızı ıslak şort""",5186,26,,[],33,Yes,,3,1,Female,Turkce,Chrome,Linux,864,1536,9.3492,
951,condition1,small,triangular,earring_small_triangular,"""triangular small earring""","""üçgen küçük küpe""",earring,[0.98],"""small triangular earring""","""küçük üçgen küpe""",3712,27,,[],33,Yes,,3,1,Female,Turkce,Chrome,Linux,864,1536,9.3492,
951,condition1,striped,red,frog_striped_red,"""striped red frog""","""çizgili kırmızı kurbağa""",frog,[0],"""red striped frog""","""kırmızı çizgili kurbağa""",25768,28,,[],33,Yes,,3,1,Female,Turkce,Chrome,Linux,864,1536,9.3492,
951,condition1,young,sad,woman_young_sad,"""sad young woman""","""mutsuz genç kadın""",woman,[0.01],"""young sad woman""","""genç mutsuz kadın""",7893,29,,[],33,Yes,,3,1,Female,Turkce,Chrome,Linux,864,1536,9.3492,
951,condition1,young,clean-shaven,man_young_cleanshaven,"""clean-shaven young man""","""sakalsız genç adam""",man,[0.05],"""young clean-shaven man""","""genç sakalsız adam""",17196,30,,[],33,Yes,,3,1,Female,Turkce,Chrome,Linux,864,1536,9.3492,
951,condition1,happy,skinny,woman2_happy_skinny,"""skinny happy woman""","""zayıf mutlu kadın""",woman,[0.08],"""happy skinny woman""","""mutlu zayıf kadın""",7186,31,,[],33,Yes,,3,1,Female,Turkce,Chrome,Linux,864,1536,9.3492,
951,condition1,striped,green,frog_striped_green,"""green striped frog""","""yeşil çizgili kurbağa""",frog,[0.95],"""striped green frog""","""çizgili yeşil kurbağa""",3890,32,,[],33,Yes,,3,1,Female,Turkce,Chrome,Linux,864,1536,9.3492,
951,condition1,black,matte,nails_black_matte,"""black matte nails""","""siyah mat oje""",nails,[0.03],"""matte black nails""","""mat siyah oje""",4621,33,,[],33,Yes,,3,1,Female,Turkce,Chrome,Linux,864,1536,9.3492,
951,condition1,spotted,green,frog_spotted_green,"""spotted green frog""","""benekli yeşil kurbağa""",frog,[0.06],"""green spotted frog""","""yeşil benekli kurbağa""",5276,34,,[],33,Yes,,3,1,Female,Turkce,Chrome,Linux,864,1536,9.3492,
951,condition1,young,happy,woman_young_happy,"""happy young woman""","""mutlu genç kadın""",woman,[0.96],"""young happy woman""","""genç mutlu kadın""",3661,35,,[],33,Yes,,3,1,Female,Turkce,Chrome,Linux,864,1536,9.3492,
951,condition1,big,round,earring_big_round,"""big round earring""","""büyük yuvarlak küpe""",earring,[0.97],"""round big earring""","""yuvarlak büyük küpe""",4223,36,,[],33,Yes,,3,1,Female,Turkce,Chrome,Linux,864,1536,9.3492,
951,condition1,short,blue,pencil_short_blue,"""short blue pencil""","""kısa mavi kalem""",pencil,[0.03],"""blue short pencil""","""mavi kısa kalem""",5137,37,,[],33,Yes,,3,1,Female,Turkce,Chrome,Linux,864,1536,9.3492,
951,condition1,glass,big,bottle_glass_big,"""glass big bottle""","""cam büyük şişe""",bottle,[0.97],"""big glass bottle""","""büyük cam şişe""",4970,38,,[],33,Yes,,3,1,Female,Turkce,Chrome,Linux,864,1536,9.3492,
951,condition1,closed,cardboard,box_closed_cardboard,"""cardboard closed box""","""karton kapalı kutu""",box,[0.96],"""closed cardboard box""","""kapalı karton kutu""",3058,39,,[],33,Yes,,3,1,Female,Turkce,Chrome,Linux,864,1536,9.3492,
951,condition1,spotted,red,frog_spotted_red,"""red spotted frog""","""kırmızı benekli kurbağa""",frog,[0.97],"""spotted red frog""","""benekli kırmızı kurbağa""",6873,40,,[],33,Yes,,3,1,Female,Turkce,Chrome,Linux,864,1536,9.3492,
951,condition1,black and white,rectangular,picture_bw_rectangular,"""black and white rectangular picture""","""siyah beyaz dikdörtgen resim""",picture,[0.02],"""rectangular black and white picture""","""dikdörtgen siyah beyaz resim""",12878,41,,[],33,Yes,,3,1,Female,Turkce,Chrome,Linux,864,1536,9.3492,
951,condition1,old,happy,woman_old_happy,"""old happy woman""","""yaşlı mutlu kadın""",woman,[0.9],"""happy old woman""","""mutlu yaşlı kadın""",105430,42,,[],33,Yes,,3,1,Female,Turkce,Chrome,Linux,864,1536,9.3492,
951,condition1,metal,dirty,spoon_metal_dirty,"""metal dirty spoon""","""metal kirli kaşık""",spoon,[0.98],"""dirty metal spoon""","""kirli metal kaşık""",4373,43,,[],33,Yes,,3,1,Female,Turkce,Chrome,Linux,864,1536,9.3492,
951,condition1,wet,green,shorts_wet_green,"""green wet shorts""","""yeşil ıslak şort""",shorts,[0.91],"""wet green shorts""","""ıslak yeşil şort""",4727,44,,[],33,Yes,,3,1,Female,Turkce,Chrome,Linux,864,1536,9.3492,
951,condition1,happy,fat,woman2_happy_fat,"""fat happy woman""","""şişman mutlu kadın""",woman,[0.03],"""happy fat woman""","""mutlu şişman kadın""",4675,45,,[],33,Yes,,3,1,Female,Turkce,Chrome,Linux,864,1536,9.3492,
951,condition1,metal,low,table_metal_low,"""low metal table""","""alçak metal masa""",table,[0.03],"""metal low table""","""metal alçak masa""",3851,46,,[],33,Yes,,3,1,Female,Turkce,Chrome,Linux,864,1536,9.3492,
951,condition1,red,glossy,nails_red_glossy,"""red glossy nails""","""kırmızı parlak oje""",nails,[0.06],"""glossy red nails""","""parlak kırmızı oje""",12006,47,,[],33,Yes,,3,1,Female,Turkce,Chrome,Linux,864,1536,9.3492,
951,condition1,colored,square,picture_colored_square,"""square colored picture""","""kare renkli resim""",picture,[0.93],"""colored square picture""","""renkli kare resim""",6439,48,,[],33,Yes,,3,1,Female,Turkce,Chrome,Linux,864,1536,9.3492,
951,condition1,straight,brown,hair_straight_brown,"""straight brown hair""","""düz kahverengi saç""",hair,[0.96],"""brown straight hair""","""kahverengi düz saç""",8883,49,,[],33,Yes,,3,1,Female,Turkce,Chrome,Linux,864,1536,9.3492,
951,condition1,glass,small,bottle_glass_small,"""glass small bottle""","""cam küçük şişe""",bottle,[0.97],"""small glass bottle""","""küçük cam şişe""",3066,50,,[],33,Yes,,3,1,Female,Turkce,Chrome,Linux,864,1536,9.3492,
951,condition1,open,cardboard,box_open_cardboard,"""cardboard open box""","""karton açık kutu""",box,[0.95],"""open cardboard box""","""açık karton kutu""",3595,51,,[],33,Yes,,3,1,Female,Turkce,Chrome,Linux,864,1536,9.3492,
951,condition1,long,blue,pencil_long_blue,"""long blue pencil""","""uzun mavi kalem""",pencil,[0.03],"""blue long pencil""","""mavi uzun kalem""",3892,52,,[],33,Yes,,3,1,Female,Turkce,Chrome,Linux,864,1536,9.3492,
951,condition1,dry,red,shorts_dry_red,"""red dry shorts""","""kırmızı kuru şort""",shorts,[0.02],"""dry red shorts""","""kuru kırmızı şort""",5853,53,,[],33,Yes,,3,1,Female,Turkce,Chrome,Linux,864,1536,9.3492,
951,condition1,black,glossy,nails_black_glossy,"""glossy black nails""","""parlak siyah oje""",nails,[0.96],"""black glossy nails""","""siyah parlak oje""",4109,54,,[],33,Yes,,3,1,Female,Turkce,Chrome,Linux,864,1536,9.3492,
951,condition1,small,round,earring_small_round,"""small round earring""","""küçük yuvarlak küpe""",earring,[0.01],"""round small earring""","""yuvarlak küçük küpe""",8366,55,,[],33,Yes,,3,1,Female,Turkce,Chrome,Linux,864,1536,9.3492,
951,condition1,red,matte,nails_red_matte,"""matte red nails""","""mat kırmızı oje""",nails,[0.96],"""red matte nails""","""kırmızı mat oje""",3278,56,,[],33,Yes,,3,1,Female,Turkce,Chrome,Linux,864,1536,9.3492,
951,condition1,curly,brown,hair_curly_brown,"""curly brown hair""","""kıvırcık kahverengi saç""",hair,[0.97],"""brown curly hair""","""kahverengi kıvırcık saç""",3846,57,,[],33,Yes,,3,1,Female,Turkce,Chrome,Linux,864,1536,9.3492,
951,condition1,plastic,big,bottle_plastic_big,"""big plastic bottle""","""büyük plastik şişe""",bottle,[0.01],"""plastic big bottle""","""plastik büyük şişe""",4221,58,,[],33,Yes,,3,1,Female,Turkce,Chrome,Linux,864,1536,9.3492,
951,condition1,mustache-touting,hat-wearing,man2_mustached_hatted,"""hat-wearing mustache-touting man""","""şapkalı bıyıklı adam""",man,[0.98],"""mustache-touting hat-wearing man""","""bıyıklı şapkalı adam""",3688,59,,[],33,Yes,,3,1,Female,Turkce,Chrome,Linux,864,1536,9.3492,
951,condition1,plastic,small,bottle_plastic_small,"""plastic small bottle""","""plastik küçük şişe""",bottle,[0.98],"""small plastic bottle""","""küçük plastik şişe""",2842,60,,[],33,Yes,,3,1,Female,Turkce,Chrome,Linux,864,1536,9.3492,
951,condition1,sad,fat,woman2_sad_fat,"""fat sad woman""","""şişman mutsuz kadın""",woman,[0],"""sad fat woman""","""mutsuz şişman kadın""",3279,61,,[],33,Yes,,3,1,Female,Turkce,Chrome,Linux,864,1536,9.3492,
951,condition1,wooden,high,table_wood_high,"""wooden high table""","""tahta yüksek masa""",table,[0.96],"""high wooden table""","""yüksek tahta masa""",3812,62,,[],33,Yes,,3,1,Female,Turkce,Chrome,Linux,864,1536,9.3492,
